sequence_index,frame_id,image_path,gt_x,gt_y,predicted_current_x,predicted_current_y,candidate_capture,candidate_nearest_gt_m,hardms_x,hardms_y,hardms_support,raw_top1_x,raw_top1_y,model_next_step_dx,model_next_step_dy,model_next_step_m,gt_next_step_dx,gt_next_step_dy,next_step_error_m,model_velocity_x,model_velocity_y,model_acceleration_x,model_acceleration_y,stop_probability,route_gate,correction_gate,measurement_x,measurement_y,measurement_variance_x,measurement_variance_y,kf_predict_x,kf_predict_y,final_x,final_y,final_vx,final_vy,state_norm,error_predicted_current_m,error_hardms_m,error_measurement_m,error_final_m,state_00,state_01,state_02,state_03,state_04,state_05,state_06,state_07,state_08,state_09,state_10,state_11,state_12,state_13,state_14,state_15
0,0,/yh/study/new_data_2/model_dataset_new_2_flight/vi/vi_000000.jpg,-37.63298034667969,0.8348962068557739,-37.63298034667969,0.8348962068557739,1.0,1.1097068786621094,-32.53472900390625,4.505537986755371,0.6790319681167603,-27.772829055786133,9.233684539794922,-0.2719840407371521,-0.04221230745315552,0.2752402424812317,-9.955018043518066,0.9474241733551025,9.733474731445312,-0.5371885299682617,-0.069976806640625,-0.054712872952222824,-0.03528272360563278,0.51822429895401,0.4867068827152252,0.9954102635383606,-37.68677520751953,7.526581287384033,36.0,36.0,-37.63298034667969,0.8348962068557739,-37.64753275584305,2.6451088882144824,-0.009810612919120441,1.2203680997923876,3.0692291259765625,0.0,6.282179355621338,6.691901683807373,1.8102711742621167,-0.05371885374188423,-0.0069976807571947575,-0.009118812158703804,-0.005880454089492559,-0.8626338839530945,0.505828857421875,0.9954102635383606,0.51822429895401,0.4867068827152252,1.0,1.0,-0.9996316432952881,0.9996071457862854,0.9946969747543335,0.999240517616272,0.9666706919670105
1,1,/yh/study/new_data_2/model_dataset_new_2_flight/vi/vi_000001.jpg,-47.69226837158203,1.7922438383102417,-37.91824152314365,2.614881630081251,1.0,2.1660690307617188,-32.50415802001953,9.263697624206543,0.6625165939331055,-27.772829055786133,9.233684539794922,-0.268522709608078,-0.01945454813539982,0.2692265510559082,-3.219829559326172,0.3452185392379761,2.9737515449523926,-0.5308130979537964,-0.026550574228167534,-0.058907490223646164,-0.02808183804154396,0.5207235217094421,0.3462962806224823,0.999929666519165,-37.34016418457031,12.814470291137695,36.0,36.0,-37.65734336876217,3.8654769880068702,-37.51013734290393,8.018794119906197,0.05876417091922448,3.155158628044041,3.0398669242858887,9.808584697623006,16.926349639892578,15.121359825134277,11.935062659844398,-0.05308131128549576,-0.002655057469382882,-0.00981791503727436,-0.004680306650698185,-0.8060575723648071,0.5918371677398682,0.999929666519165,0.5207235217094421,0.3462962806224823,1.0,1.0,-0.9938191771507263,0.9918089509010315,0.9880521297454834,0.9902853965759277,0.9584576487541199
2,2,/yh/study/new_data_2/model_dataset_new_2_flight/vi/vi_000002.jpg,-50.9120979309082,2.1374623775482178,-37.778047607771676,8.005095455296715,1.0,2.342602252960205,-32.50415802001953,9.263697624206543,0.6309981346130371,-27.772829055786133,9.233684539794922,-0.26717904210090637,-0.01906215026974678,0.2678581774234772,-3.229381561279297,0.34624290466308594,2.984642505645752,-0.5281141400337219,-0.02581110969185829,-0.058529097586870193,-0.027911240234971046,0.5206508040428162,0.3473806083202362,0.9999306201934814,-37.34172821044922,12.812347412109375,36.0,36.0,-37.451373171984706,11.173952747950239,-37.39503799115297,12.015753943249953,0.07831377792304961,3.447283057228218,3.038762092590332,14.385144970620596,19.739187240600586,17.265806198120117,16.741910096280826,-0.05281141400337219,-0.0025811109226197004,-0.009754849597811699,-0.004651873372495174,-0.8063176870346069,0.5914826989173889,0.9999306201934814,0.5206508040428162,0.3473806083202362,1.0,1.0,-0.9930766224861145,0.9902585744857788,0.9882315397262573,0.9883090257644653,0.9588434100151062
3,3,/yh/study/new_data_2/model_dataset_new_2_flight/vi/vi_000003.jpg,-54.1414794921875,2.4837052822113037,-37.661609486754394,12.002401336314392,1.0,3.431870222091675,-32.50415802001953,9.263697624206543,0.6169041991233826,-27.772829055786133,9.233684539794922,-0.26693564653396606,-0.018989045172929764,0.26761022210121155,-3.5181655883789062,0.37720561027526855,3.2752811908721924,-0.5275720357894897,-0.02565513364970684,-0.05852189660072327,-0.027912771329283714,0.5206180810928345,0.34697696566581726,0.9999305009841919,-37.3420524597168,12.811903953552246,36.0,36.0,-37.31672421322992,15.46303700047817,-37.32927276518215,14.14956744036253,0.07473424247135453,3.072609479507476,3.0386648178100586,19.031334424216592,22.674699783325195,19.720355987548828,20.463201971454733,-0.052757203578948975,-0.002565513364970684,-0.009753650054335594,-0.004652128554880619,-0.806371808052063,0.5914088487625122,0.9999305009841919,0.5206180810928345,0.34697696566581726,1.0,1.0,-0.9930874705314636,0.9902533888816833,0.9882318377494812,0.9883033037185669,0.9587019681930542
4,4,/yh/study/new_data_2/model_dataset_new_2_flight/vi/vi_000004.jpg,-57.659645080566406,2.8609108924865723,-37.58570759260019,14.146945548868525,1.0,6.445864677429199,-32.50415802001953,9.263697624206543,0.6155432462692261,-27.772829055786133,9.233684539794922,-0.18251383304595947,0.15395686030387878,0.2387760728597641,-3.1941299438476562,0.30338549613952637,3.0153210163116455,-0.34282147884368896,0.28115469217300415,-0.034275103360414505,0.04496695101261139,0.4929594397544861,0.17104986310005188,0.9997784495353699,-37.5052490234375,12.576272010803223,36.0,36.0,-37.25453852271079,17.222176919870005,-37.370941450146496,15.06511955515749,0.04515916148012178,2.524554996089596,3.023343801498413,23.029058698432074,25.95754623413086,22.373821258544922,23.676448299629442,-0.034282147884368896,0.028115469962358475,-0.005712517537176609,0.007494491990655661,-0.8336998224258423,0.5522181391716003,0.9997784495353699,0.4929594397544861,0.17104986310005188,1.0,1.0,-0.9989640712738037,0.9990385174751282,0.9883614182472229,0.9994218349456787,0.9460546970367432
5,5,/yh/study/new_data_2/model_dataset_new_2_flight/vi/vi_000005.jpg,-60.85377502441406,3.1642963886260986,-37.55445821600796,15.217513195985212,0.0,9.506715774536133,-32.50415802001953,9.263697624206543,0.6171227693557739,-27.772829055786133,9.233684539794922,-0.18378815054893494,0.165429949760437,0.2472754567861557,-3.1709976196289062,0.30118846893310547,2.99029278755188,-0.347271591424942,0.3015947937965393,-0.02843737229704857,0.0475739948451519,0.49158206582069397,0.1629299521446228,0.9997524619102478,-37.41069793701172,12.71450424194336,36.0,36.0,-37.325782288666375,17.589674551247086,-37.362979463960315,15.4541133429586,0.03621034300723763,2.010786156394391,3.024049758911133,26.23238836140696,28.998336791992188,25.313718795776367,26.51145180547516,-0.03472715988755226,0.0301594790071249,-0.004739562049508095,0.00792899914085865,-0.8179588317871094,0.5752768516540527,0.9997524619102478,0.49158206582069397,0.1629299521446228,1.0,1.0,-0.999146580696106,0.9993340969085693,0.9844866394996643,0.9995665550231934,0.9537621736526489
6,6,/yh/study/new_data_2/model_dataset_new_2_flight/vi/vi_000006.jpg,-64.02477264404297,3.465484857559204,-37.54799910270683,15.61762380701804,0.0,12.618176460266113,-32.50415802001953,9.263697624206543,0.6178175806999207,-27.772829055786133,9.233684539794922,-0.18392042815685272,0.165487602353096,0.24741233885288239,-3.479705810546875,0.33050966262817383,3.2999141216278076,-0.3477346897125244,0.301616370677948,-0.028088688850402832,0.047809045761823654,0.4916222095489502,0.16301414370536804,0.9997524619102478,-37.408287048339844,12.717926025390625,36.0,36.0,-37.326769120953074,17.464899499352992,-37.361030618241045,15.46977494187292,0.02808900252760997,1.5378621129886194,3.0242631435394287,29.132353461506536,32.049468994140625,28.178804397583008,29.241376835690694,-0.03477346897125244,0.03016163781285286,-0.0046814484521746635,0.007968174293637276,-0.8175573348999023,0.575847327709198,0.9997524619102478,0.4916222095489502,0.16301414370536804,1.0,1.0,-0.9991592168807983,0.9993483424186707,0.9846332669258118,0.9995698928833008,0.9542185068130493
7,7,/yh/study/new_data_2/model_dataset_new_2_flight/vi/vi_000007.jpg,-67.50447845458984,3.795994520187378,-37.54618247030356,15.633343174015407,0.0,16.065874099731445,-32.50415802001953,9.263697624206543,0.6151889562606812,-27.772829055786133,9.233684539794922,-0.18398070335388184,0.16556930541992188,0.24751180410385132,-3.2008743286132812,0.2805640697479248,3.0190844535827637,-0.34784406423568726,0.30173277854919434,-0.02810259349644184,0.047893669456243515,0.4916190505027771,0.16299624741077423,0.999751627445221,-37.40846633911133,12.717663764953613,36.0,36.0,-37.33294161571344,17.00763705486154,-37.363916505797015,15.248193985916824,0.020709605359387685,1.118695841031376,3.0242505073547363,32.21214555776109,35.42482376098633,31.39054298400879,32.242927087841636,-0.034784406423568726,0.030173277482390404,-0.004683765582740307,0.007982278242707253,-0.8175877928733826,0.5758041143417358,0.999751627445221,0.4916190505027771,0.16299624741077423,1.0,1.0,-0.9991610050201416,0.9993497133255005,0.9846504330635071,0.9995712637901306,0.9541608095169067
8,8,/yh/study/new_data_2/model_dataset_new_2_flight/vi/vi_000008.jpg,-70.70535278320312,4.076558589935303,-37.549129619330074,15.411842402201088,0.0,19.253145217895508,-32.50415802001953,9.263697624206543,0.6112006902694702,-27.772829055786133,9.233684539794922,-0.1840803176164627,0.1657835841178894,0.24772921204566956,-3.1961441040039062,0.2801494598388672,3.0142340660095215,-0.34801191091537476,0.30204880237579346,-0.02813836745917797,0.04808615893125534,0.49160465598106384,0.16294468939304352,0.9997498393058777,-37.40867233276367,12.717352867126465,36.0,36.0,-37.34320690043763,16.3668898269482,-37.3697457607673,14.887413587299669,0.014317571094046539,0.7623556402422447,3.0242011547088623,35.04031668802619,38.551753997802734,34.39959716796875,35.04478964594181,-0.034801192581653595,0.030204880982637405,-0.004689727909862995,0.008014360442757607,-0.8176235556602478,0.5757532119750977,0.9997498393058777,0.49160465598106384,0.16294468939304352,1.0,1.0,-0.9991651177406311,0.9993534088134766,0.9846762418746948,0.999574601650238,0.9539826512336731
9,9,/yh/study/new_data_2/model_dataset_new_2_flight/vi/vi_000009.jpg,-73.90149688720703,4.35670804977417,-37.55506202488971,15.051270826544398,0.0,22.443069458007812,-32.50415802001953,9.263697624206543,0.6114300489425659,-27.772829055786133,9.233684539794922,-0.1840343475341797,0.16571228206157684,0.24764733016490936,-3.5090789794921875,0.30757856369018555,3.3280696868896484,-0.3479459881782532,0.30194756388664246,-0.02809564396739006,0.04801386594772339,0.4916091561317444,0.16294702887535095,0.9997503161430359,-37.408451080322266,12.717670440673828,36.0,36.0,-37.355428189673255,15.649769227541913,-37.37684321190707,14.465545584810265,0.009109465840074098,0.47435400717136345,3.0241992473602295,37.88716141632882,41.6871452331543,37.43859100341797,37.89774297250903,-0.03479459881782532,0.030194757506251335,-0.0046826074831187725,0.008002310991287231,-0.817586362361908,0.5758060216903687,0.9997503161430359,0.4916091561317444,0.16294702887535095,1.0,1.0,-0.9991625547409058,0.9993509650230408,0.9846255779266357,0.9995728135108948,0.9540330171585083
10,10,/yh/study/new_data_2/model_dataset_new_2_flight/vi/vi_000010.jpg,-77.41057586669922,4.6642866134643555,-37.562112399112955,14.629333173057601,0.0,25.95056915283203,-32.50415802001953,9.263697624206543,0.6099411249160767,-27.772829055786133,9.233684539794922,-0.18411079049110413,0.16582369804382324,0.24777869880199432,-3.3036117553710938,0.3003964424133301,3.1224024295806885,-0.34806641936302185,0.30210742354393005,-0.028148336336016655,0.048125989735126495,0.4916040599346161,0.1629389375448227,0.9997491240501404,-37.408782958984375,12.717185020446777,36.0,36.0,-37.367733746066996,14.939899591981629,-37.38431492418947,14.042069314450806,0.005051725830840765,0.2546373011732213,3.024179697036743,41.07556686964184,45.14134216308594,40.8043212890625,41.110149275146185,-0.034806642681360245,0.030210742726922035,-0.004691389389336109,0.008020998910069466,-0.8176429271697998,0.5757256746292114,0.9997491240501404,0.4916040599346161,0.1629389375448227,1.0,1.0,-0.999165415763855,0.9993534684181213,0.984663724899292,0.999575138092041,0.9539276361465454
11,11,/yh/study/new_data_2/model_dataset_new_2_flight/vi/vi_000011.jpg,-80.71418762207031,4.9646830558776855,-37.56966213604859,14.205965910466542,0.0,29.256114959716797,-32.50415802001953,9.263697624206543,0.6112232804298401,-27.772829055786133,9.233684539794922,-0.1840285062789917,0.1657048463821411,0.2476380169391632,-3.3056716918945312,0.3005838394165039,3.1245555877685547,-0.3479355573654175,0.30194124579429626,-0.02809401974081993,0.04799768328666687,0.49160948395729065,0.1629517823457718,0.9997500777244568,-37.40834045410156,12.717823028564453,36.0,36.0,-37.37926319835863,14.296706615624029,-37.39102478945882,13.658056830033166,0.0021645335369796332,0.09786389154462993,3.024181365966797,44.12313892066719,48.401329040527344,43.99440383911133,44.18677613719001,-0.03479355573654175,0.030194124206900597,-0.004682336933910847,0.007999613881111145,-0.817568302154541,0.5758315324783325,0.9997500777244568,0.49160948395729065,0.1629517823457718,1.0,1.0,-0.9991620779037476,0.9993505477905273,0.9846035838127136,0.9995725750923157,0.9539998173713684
12,12,/yh/study/new_data_2/model_dataset_new_2_flight/vi/vi_000012.jpg,-84.01985931396484,5.2652668952941895,-37.576288082627066,13.821837071452357,0.0,32.566104888916016,-32.50415802001953,9.263697624206543,0.6121450662612915,-27.772829055786133,9.233684539794922,-0.18394321203231812,0.16547177731990814,0.24741870164871216,-3.307037353515625,0.3007078170776367,3.126020669937134,-0.3478022813796997,0.30159857869148254,-0.02805468440055847,0.04779279977083206,0.49163034558296204,0.1630152016878128,0.999751627445221,-37.40811538696289,12.718162536621094,36.0,36.0,-37.38886025592184,13.755920721577796,-37.39665947580019,13.33558059261266,0.000248045431212105,-0.005425523307569929,3.024218797683716,47.225207272174735,51.67063903808594,47.203819274902344,47.31651642209687,-0.03478023037314415,0.030159858986735344,-0.004675780888646841,0.007965466938912868,-0.8175290822982788,0.5758872032165527,0.999751627445221,0.49163034558296204,0.1630152016878128,1.0,1.0,-0.9991576671600342,0.9993467926979065,0.9845560193061829,0.9995690584182739,0.954158365726471
13,13,/yh/study/new_data_2/model_dataset_new_2_flight/vi/vi_000013.jpg,-87.32689666748047,5.565974712371826,-37.581833332332614,13.49913422213124,0.0,35.879188537597656,-32.50415802001953,9.263697624206543,0.6164963841438293,-27.772829055786133,9.233684539794922,-0.18390774726867676,0.16534841060638428,0.2473098486661911,-3.2024154663085938,0.33792972564697266,3.023437261581421,-0.3477417230606079,0.30142050981521606,-0.02805236726999283,0.04767804220318794,0.491641640663147,0.1630554348230362,0.9997523427009583,-37.408077239990234,12.718221664428711,36.0,36.0,-37.39641143036898,13.33015506930509,-37.40114092582222,13.082068022626956,-0.0009141048152283243,-0.06638644932734862,3.0242412090301514,50.373667188573414,54.94729995727539,50.428592681884766,50.48834266466056,-0.03477417305111885,0.030142052099108696,-0.004675394855439663,0.00794634036719799,-0.8175225257873535,0.5758966207504272,0.9997523427009583,0.491641640663147,0.1630554348230362,1.0,1.0,-0.9991559982299805,0.9993455410003662,0.9845411777496338,0.9995677471160889,0.9542360901832581
14,14,/yh/study/new_data_2/model_dataset_new_2_flight/vi/vi_000014.jpg,-90.52931213378906,5.903904438018799,-37.58592401019694,13.239190023481433,0.0,39.09018325805664,-32.50415802001953,9.263697624206543,0.6178089380264282,-27.772829055786133,9.233684539794922,-0.2663172781467438,-0.018342742696404457,0.26694822311401367,-3.2017059326171875,0.33785486221313477,2.956921100616455,-0.5258533358573914,-0.02404029481112957,-0.0586407333612442,-0.028395172208547592,0.5202991962432861,0.3424686789512634,0.9999231100082397,-37.3512077331543,12.799311637878418,36.0,36.0,-37.40205503063745,13.015681573299608,-37.381431381756904,12.927921991231134,0.004151693500026456,-0.08794288415442338,3.0378308296203613,53.44912310436544,58.122344970703125,53.623291015625,53.6100181964161,-0.052585333585739136,-0.002404029481112957,-0.009773455560207367,-0.004732528701424599,-0.8079038858413696,0.589314341545105,0.9999231100082397,0.5202991962432861,0.3424686789512634,1.0,1.0,-0.9932761192321777,0.9906603693962097,0.9861657023429871,0.9889487028121948,0.9587162137031555
15,15,/yh/study/new_data_2/model_dataset_new_2_flight/vi/vi_000015.jpg,-93.73101806640625,6.241759300231934,-37.64715994200659,12.915111925721268,0.0,42.30186462402344,-32.50415802001953,9.263697624206543,0.6168675422668457,-27.772829055786133,9.233684539794922,-0.26671159267425537,-0.018919551745057106,0.26738178730010986,-3.5121917724609375,0.3706183433532715,3.2687735557556152,-0.5270806550979614,-0.025505507364869118,-0.05848490446805954,-0.027916062623262405,0.5205814838409424,0.34652215242385864,0.9999303817749023,-37.34247589111328,12.811325073242188,36.0,36.0,-37.37727968825688,12.839979107076712,-37.36316121772596,12.82835534284732,0.00761826319448981,-0.09079691772165345,3.038562774658203,56.47948988245127,61.301387786865234,56.76994705200195,56.7513747246876,-0.05270806699991226,-0.0025505507364869118,-0.00974748469889164,-0.0046526771038770676,-0.8064426779747009,0.5913123488426208,0.9999303817749023,0.5205814838409424,0.34652215242385864,1.0,1.0,-0.9931046962738037,0.9902392029762268,0.9882549047470093,0.9882741570472717,0.9585689902305603
16,16,/yh/study/new_data_2/model_dataset_new_2_flight/vi/vi_000016.jpg,-97.24320983886719,6.612377643585205,-37.62926924933803,12.81510815917158,0.0,45.826263427734375,-32.50415802001953,9.263697624206543,0.6135758757591248,-27.772829055786133,9.233684539794922,-0.2663700580596924,-0.018817784264683723,0.2670339345932007,-3.2447433471679688,0.33427858352661133,2.9992306232452393,-0.526308536529541,-0.025286667048931122,-0.05840790271759033,-0.02791532129049301,0.5204967260360718,0.3458839952945709,0.9999301433563232,-37.34309768676758,12.810477256774902,36.0,36.0,-37.35554295453147,12.737558425125666,-37.35049448744569,12.76713820826084,0.00885749377049603,-0.08353606584922187,3.038388967514038,59.935763768061705,64.79331970214844,60.21992874145508,60.20812594471686,-0.05263085290789604,-0.002528666751459241,-0.009734651073813438,-0.004652553703635931,-0.8065460920333862,0.5911712646484375,0.9999301433563232,0.5204967260360718,0.3458839952945709,1.0,1.0,-0.9931308031082153,0.9902132153511047,0.9882951974868774,0.9882158041000366,0.9583176374435425
17,17,/yh/study/new_data_2/model_dataset_new_2_flight/vi/vi_000017.jpg,-100.48795318603516,6.946656227111816,-37.61626383708443,12.75396581303626,0.0,49.082828521728516,-32.50415802001953,9.263697624206543,0.6249300241470337,-27.772829055786133,9.233684539794922,-0.26637476682662964,-0.018816770985722542,0.2670385539531708,-3.2443771362304688,0.3342409133911133,2.9988577365875244,-0.5263174176216125,-0.025283221155405045,-0.058400943875312805,-0.02791735902428627,0.5204929113388062,0.3458663523197174,0.9999301433563232,-37.34309768676758,12.810476303100586,36.0,36.0,-37.34163699367519,12.683602142411619,-37.34222948849779,12.735065576943246,0.00871207783426183,-0.07090540102535914,3.038396120071411,63.13932345391209,68.02326965332031,63.416534423828125,63.410473141957766,-0.052631743252277374,-0.002528322162106633,-0.009733490645885468,-0.004652893170714378,-0.8065462112426758,0.5911710262298584,0.9999301433563232,0.5204929113388062,0.3458663523197174,1.0,1.0,-0.9931376576423645,0.9902188777923584,0.9882973432540894,0.9882192611694336,0.9583304524421692
18,18,/yh/study/new_data_2/model_dataset_new_2_flight/vi/vi_000018.jpg,-103.73233032226562,7.28089714050293,-37.608003594376726,12.72189384674719,0.0,52.339691162109375,-32.50415802001953,9.263697624206543,0.6225161552429199,-27.772829055786133,9.233684539794922,-0.2662278413772583,-0.018771272152662277,0.2668887674808502,-3.5599594116210938,0.36675167083740234,3.3162171840667725,-0.5259838104248047,-0.025184445083141327,-0.058358531445264816,-0.027918320149183273,0.5204511284828186,0.3455204963684082,0.9999300241470337,-37.343421936035156,12.810033798217773,36.0,36.0,-37.33351741066353,12.664160175917887,-37.337534666060805,12.723326221186676,0.007726182052990879,-0.056385150591532714,3.038320779800415,66.34780350828476,71.25576782226562,66.61875915527344,66.61748212389497,-0.05259838327765465,-0.0025184445548802614,-0.009726421907544136,-0.004653053358197212,-0.8066002130508423,0.5910974740982056,0.9999300241470337,0.5204511284828186,0.3455204963684082,1.0,1.0,-0.9931570291519165,0.9902154207229614,0.9883284568786621,0.9881950616836548,0.9582170248031616
19,19,/yh/study/new_data_2/model_dataset_new_2_flight/vi/vi_000019.jpg,-107.29228973388672,7.647648811340332,-37.60316321475999,12.710187033836714,0.0,55.88978958129883,-32.50415802001953,9.263697624206543,0.6279541254043579,-27.772829055786133,9.233684539794922,-0.266325980424881,-0.018801048398017883,0.2669887840747833,-3.3231964111328125,0.3046536445617676,3.0739355087280273,-0.526206374168396,-0.025248780846595764,-0.0583856925368309,-0.027918275445699692,0.5204783082008362,0.34574609994888306,0.9999301433563232,-37.343204498291016,12.810328483581543,36.0,36.0,-37.32980848400781,12.666941070595144,-37.33524161568784,12.72509588288069,0.0063928211088522926,-0.042113205793976774,3.038372278213501,69.87276757258932,74.80558776855469,70.13934326171875,70.14106536242723,-0.05262063816189766,-0.002524878131225705,-0.009730949066579342,-0.004653045907616615,-0.8065643310546875,0.5911464691162109,0.9999301433563232,0.5204783082008362,0.34574609994888306,1.0,1.0,-0.9931457042694092,0.9902185797691345,0.9883064031600952,0.9882124066352844,0.9582962989807129
20,20,/yh/study/new_data_2/model_dataset_new_2_flight/vi/vi_000020.jpg,-110.61548614501953,7.9523024559021,-37.60096740145304,12.711935409571556,0.0,59.20332336425781,-32.50415802001953,9.263697624206543,0.6273510456085205,-27.772829055786133,9.233684539794922,-0.2662789225578308,-0.018787026405334473,0.2669408321380615,-3.3189697265625,0.30426549911499023,3.0697367191314697,-0.526099681854248,-0.025218764320015907,-0.058373093605041504,-0.027917739003896713,0.5204654932022095,0.3456381857395172,0.9999300241470337,-37.34331512451172,12.810178756713867,36.0,36.0,-37.32884879457899,12.682982677086715,-37.334715862810285,12.73456922885185,0.004952950333873265,-0.029453055044015762,3.0383460521698,73.16948854002109,78.1223373413086,73.43302917480469,73.4366486751784,-0.052609968930482864,-0.0025218764785677195,-0.009728848934173584,-0.004652956500649452,-0.8065823912620544,0.5911216735839844,0.9999300241470337,0.5204654932022095,0.3456381857395172,1.0,1.0,-0.9931501150131226,0.9902151823043823,0.9883168935775757,0.9882020354270935,0.9582585692405701
21,21,/yh/study/new_data_2/model_dataset_new_2_flight/vi/vi_000021.jpg,-113.93445587158203,8.25656795501709,-37.60039501163958,12.721418738993929,0.0,62.5151481628418,-32.50415802001953,9.263697624206543,0.6314599514007568,-27.772829055786133,9.233684539794922,-0.26635512709617615,-0.018809884786605835,0.26701846718788147,-3.3149948120117188,0.30390071868896484,3.0656723976135254,-0.5262723565101624,-0.025268161669373512,-0.05839390307664871,-0.027917688712477684,0.5204863548278809,0.3458201289176941,0.9999301433563232,-37.343143463134766,12.81041145324707,36.0,36.0,-37.32976291247641,12.705116173807834,-37.33518956068631,12.747819979822168,0.0036211455250802303,-0.01897271211337365,3.0383875370025635,76.46452602280732,81.4365234375,76.7265625,76.73082134395436,-0.052627235651016235,-0.00252681621350348,-0.009732317179441452,-0.004652948118746281,-0.8065540790557861,0.5911603569984436,0.9999301433563232,0.5204863548278809,0.3458201289176941,1.0,1.0,-0.9931415915489197,0.9902187585830688,0.9883010983467102,0.9882156252861023,0.9583190679550171
22,22,/yh/study/new_data_2/model_dataset_new_2_flight/vi/vi_000022.jpg,-117.24945068359375,8.560468673706055,-37.60094420077785,12.734653305716579,0.0,65.82512664794922,-32.50415802001953,9.263697624206543,0.6342519521713257,-27.772829055786133,9.233684539794922,-0.26644060015678406,-0.01883591338992119,0.2671055495738983,-3.5605926513671875,0.29915714263916016,3.309464931488037,-0.5264662504196167,-0.025324832648038864,-0.058416400104761124,-0.027916710823774338,0.5205095410346985,0.34600943326950073,0.9999301433563232,-37.34296798706055,12.810650825500488,36.0,36.0,-37.33156841516123,12.728847267708794,-37.33619163976154,12.762023620655714,0.002486503134350021,-0.01083049544043372,3.038428783416748,79.7578109170837,84.74821472167969,80.0194320678711,80.02363422751348,-0.05264662578701973,-0.002532483311370015,-0.009736066684126854,-0.004652785137295723,-0.806524932384491,0.5912001729011536,0.9999301433563232,0.5205095410346985,0.34600943326950073,1.0,1.0,-0.993130624294281,0.9902199506759644,0.9882869124412537,0.9882266521453857,0.958381712436676
23,23,/yh/study/new_data_2/model_dataset_new_2_flight/vi/vi_000023.jpg,-120.81004333496094,8.859625816345215,-37.60203099176401,12.748838212672991,0.0,69.38255310058594,-27.772829055786133,9.233684539794922,0.6383211612701416,-27.772829055786133,9.233684539794922,-0.2667046785354614,-0.018917324021458626,0.26737475395202637,-3.259429931640625,0.2738533020019531,3.007011651992798,-0.5270597338676453,-0.02550116740167141,-0.05847718566656113,-0.027913978323340416,0.5205725431442261,0.3465826213359833,0.9999303817749023,-32.61113739013672,12.781325340270996,36.0,36.0,-37.33370513662719,12.75119312521528,-35.41841267233793,12.76341359668897,0.4725452498207766,-0.00783129839249274,3.0385587215423584,83.29885528126638,93.03797149658203,88.28604888916016,85.48081741686717,-0.052705973386764526,-0.002550116740167141,-0.009746197611093521,-0.004652329720556736,-0.8064408302307129,0.5913146138191223,0.9999303817749023,0.5205725431442261,0.3465826213359833,1.0,1.0,-0.9931000471115112,0.990226686000824,0.988251805305481,0.9882538318634033,0.9585810899734497
24,24,/yh/study/new_data_2/model_dataset_new_2_flight/vi/vi_000024.jpg,-124.06947326660156,9.133479118347168,-35.6746405849836,12.760825928813377,0.0,72.64042663574219,-27.772829055786133,9.233684539794922,0.6342755556106567,-27.772829055786133,9.233684539794922,-0.18262991309165955,0.15117649734020233,0.2370823174715042,-3.249481201171875,0.27301788330078125,3.069270610809326,-0.34313318133354187,0.2763673961162567,-0.034613385796546936,0.04399150609970093,0.49331381916999817,0.17246103286743164,0.9997803568840027,-32.78545379638672,12.528801918029785,36.0,36.0,-34.94586742251715,12.755582298296478,-34.06968469840485,12.663608683172974,0.687582196068555,-0.03040390201414535,3.02356219291687,88.4692267949406,96.29669952392578,91.3471450805664,90.06899442685352,-0.03431331738829613,0.02763674035668373,-0.005768897943198681,0.007331917993724346,-0.8356207609176636,0.5493068695068359,0.9997803568840027,0.49331381916999817,0.17246103286743164,1.0,1.0,-0.9989563226699829,0.9989972114562988,0.988552451133728,0.9993928670883179,0.9462063312530518
25,25,/yh/study/new_data_2/model_dataset_new_2_flight/vi/vi_000025.jpg,-127.31895446777344,9.40649700164795,-34.25324748933744,12.81333111940242,0.0,80.62083435058594,-27.74225425720215,13.991843223571777,0.6111546158790588,-27.772829055786133,9.233684539794922,-0.18385913968086243,0.16538068652153015,0.24729527533054352,-3.5123138427734375,0.3351449966430664,3.3327813148498535,-0.3474489450454712,0.3016625940799713,-0.02838214673101902,0.04726281017065048,0.4915962219238281,0.16281162202358246,0.9997513890266418,-32.64997100830078,17.440963745117188,36.0,36.0,-33.382102502336295,12.63320478115883,-33.08517693028416,14.583054763425622,0.7604551462734409,0.4481379752741396,3.0235183238983154,93.12804268372662,99.68221282958984,95.00931549072266,94.37585273387488,-0.03474489599466324,0.0301662590354681,-0.00473035778850317,0.007877135649323463,-0.8181561231613159,0.5749962329864502,0.9997513890266418,0.4915962219238281,0.16281162202358246,1.0,1.0,-0.9991344213485718,0.9993147850036621,0.9838124513626099,0.9995575547218323,0.9528286457061768
26,26,/yh/study/new_data_2/model_dataset_new_2_flight/vi/vi_000026.jpg,-130.83126831054688,9.741641998291016,-33.270264234680354,14.746521209424682,0.0,84.13402557373047,-27.74225425720215,13.991843223571777,0.6072091460227966,-27.772829055786133,9.233684539794922,-0.18375858664512634,0.1640036553144455,0.24630148708820343,-3.20526123046875,0.30584716796875,3.0248303413391113,-0.34730708599090576,0.2994375228881836,-0.028476525098085403,0.046479951590299606,0.49174124002456665,0.16357332468032837,0.9997575879096985,-32.6484375,17.443206787109375,36.0,36.0,-32.32472178401072,15.031192738699762,-32.45600909218882,16.009417817255873,0.7282339707211444,0.6882187753394204,3.024324417114258,97.68929487005873,103.17658996582031,98.48442840576172,98.57472617256384,-0.034730710089206696,0.02994375303387642,-0.0047460878267884254,0.007746658753603697,-0.8178954124450684,0.5753669142723083,0.9997575879096985,0.49174124002456665,0.16357332468032837,1.0,1.0,-0.9991370439529419,0.999326765537262,0.9843418598175049,0.9995543956756592,0.9546229839324951
27,27,/yh/study/new_data_2/model_dataset_new_2_flight/vi/vi_000027.jpg,-134.03652954101562,10.047489166259766,-32.64096742982173,16.171551510640366,0.0,87.34114837646484,-27.74225425720215,13.991843223571777,0.612342357635498,-27.772829055786133,9.233684539794922,-0.1838933378458023,0.1653275042772293,0.2472851425409317,-3.1987457275390625,0.3052234649658203,3.018096446990967,-0.3477521240711212,0.30143874883651733,-0.02794799767434597,0.04753520339727402,0.4916227459907532,0.16291706264019012,0.9997525811195374,-32.64533233642578,17.44756317138672,36.0,36.0,-31.727775121467676,16.697636592595295,-32.09990309236211,17.001779649329038,0.6369045487117586,0.7628630153649583,3.0240883827209473,101.58033350724362,106.367431640625,101.660888671875,102.17356785321357,-0.03477521240711212,0.030143875628709793,-0.004657999612390995,0.00792253389954567,-0.8173820376396179,0.5760959386825562,0.9997525811195374,0.4916227459907532,0.16291706264019012,1.0,1.0,-0.9991560578346252,0.9993432760238647,0.9842633008956909,0.9995675086975098,0.9540750980377197
28,28,/yh/study/new_data_2/model_dataset_new_2_flight/vi/vi_000028.jpg,-137.2352752685547,10.352712631225586,-32.28502341949214,17.16519470752864,0.0,90.54264831542969,-27.74225425720215,13.991843223571777,0.6068196892738342,-27.772829055786133,9.233684539794922,-0.18392586708068848,0.16545766592025757,0.24739636480808258,-3.1839599609375,0.312896728515625,3.003654956817627,-0.34782707691192627,0.3016296625137329,-0.027909686788916588,0.04765070229768753,0.49161121249198914,0.16285304725170135,0.9997519850730896,-32.64529800415039,17.44760513305664,36.0,36.0,-31.462998543650354,17.764642664693994,-31.94249643263248,17.63606371136865,0.5192239472181233,0.7313065707706574,3.024075984954834,105.17112377084122,109.55348205566406,104.83035278320312,105.5443815555667,-0.03478270769119263,0.03016296587884426,-0.004651614464819431,0.007941784337162971,-0.8173767924308777,0.5761033892631531,0.9997519850730896,0.49161121249198914,0.16285304725170135,1.0,1.0,-0.9991568922996521,0.9993436932563782,0.9842555522918701,0.9995682239532471,0.9540579319000244
29,29,/yh/study/new_data_2/model_dataset_new_2_flight/vi/vi_000029.jpg,-140.4192352294922,10.665609359741211,-32.127651647542734,17.79960527180864,0.0,93.73027801513672,-27.74225425720215,13.991843223571777,0.601717472076416,-27.772829055786133,9.233684539794922,-0.1838131994009018,0.16526077687740326,0.24718093872070312,-3.1893463134765625,0.31342411041259766,3.009182929992676,-0.34767091274261475,0.30134889483451843,-0.027808643877506256,0.04746449738740921,0.49163225293159485,0.1628795564174652,0.9997532963752747,-32.644500732421875,17.448749542236328,36.0,36.0,-31.42327248541436,18.367370282139305,-31.918558455019053,17.994810963292313,0.3976686003104926,0.6398713595486201,3.024052858352661,108.5263146539112,112.72605895996094,107.98798370361328,108.74793817201406,-0.034767091274261475,0.030134890228509903,-0.004634774290025234,0.00791074987500906,-0.8172429800033569,0.5762933492660522,0.9997532963752747,0.49163225293159485,0.1628795564174652,1.0,1.0,-0.999148428440094,0.9993374943733215,0.9841069579124451,0.9995625019073486,0.9541443586349487
30,30,/yh/study/new_data_2/model_dataset_new_2_flight/vi/vi_000030.jpg,-143.60858154296875,10.979033470153809,-32.10359795751523,18.158160338133097,0.0,96.924072265625,-27.74225425720215,13.991843223571777,0.6010310649871826,-27.772829055786133,9.233684539794922,-0.18383532762527466,0.16524150967597961,0.24718451499938965,-3.4817352294921875,0.34215831756591797,3.3026418685913086,-0.347718745470047,0.3013148605823517,-0.02780882641673088,0.04746466875076294,0.4916384220123291,0.16289187967777252,0.9997532963752747,-32.64463424682617,17.448564529418945,36.0,36.0,-31.52088985470856,18.634682322840934,-31.976639856468072,18.153635929879286,0.2858163691774417,0.5218107734300508,3.0240726470947266,111.73585470644058,115.90548706054688,111.15238189697266,111.86226050439616,-0.0347718745470047,0.030131487175822258,-0.004634804558008909,0.007910778746008873,-0.8172647953033447,0.5762624740600586,0.9997532963752747,0.4916384220123291,0.16289187967777252,1.0,1.0,-0.999148964881897,0.9993380904197693,0.9841219186782837,0.999562680721283,0.9541845917701721
31,31,/yh/study/new_data_2/model_dataset_new_2_flight/vi/vi_000031.jpg,-147.09031677246094,11.321191787719727,-32.16170071661338,18.316967250266973,0.0,100.41146087646484,-27.74225425720215,13.991843223571777,0.6031298637390137,-27.772829055786133,9.233684539794922,-0.18385599553585052,0.16528472304344177,0.24722877144813538,-3.2950286865234375,0.3002347946166992,3.114098072052002,-0.3477596938610077,0.30137309432029724,-0.027804221957921982,0.04751453921198845,0.4916355311870575,0.16287849843502045,0.999752938747406,-32.64476776123047,17.4483699798584,36.0,36.0,-31.69082348729063,18.675446703309337,-32.077708681094535,18.177788895685115,0.1908652564667247,0.3996733452217075,3.0240702629089355,115.14133776726236,119.37793731689453,114.60944366455078,115.21680842602437,-0.03477596864104271,0.030137309804558754,-0.004634037148207426,0.007919089868664742,-0.8172875642776489,0.5762300491333008,0.999752938747406,0.4916355311870575,0.16287849843502045,1.0,1.0,-0.999149739742279,0.9993384480476379,0.9841366410255432,0.9995632171630859,0.9541646242141724
32,32,/yh/study/new_data_2/model_dataset_new_2_flight/vi/vi_000032.jpg,-150.38534545898438,11.621426582336426,-32.26279090429384,18.341162378869107,0.0,103.71200561523438,-27.74225425720215,13.991843223571777,0.6015638113021851,-27.772829055786133,9.233684539794922,-0.18382447957992554,0.16521598398685455,0.24715937674045563,-3.3034820556640625,0.3010063171386719,3.1226112842559814,-0.34771057963371277,0.3012774586677551,-0.02779095619916916,0.04744667559862137,0.49164441227912903,0.16289663314819336,0.9997532963752747,-32.64463806152344,17.44856071472168,36.0,36.0,-31.88684342462781,18.577462240906822,-32.19417742342758,18.119620758001957,0.11543795756663387,0.2873078193938133,3.0240554809570312,118.313535758598,122.6659927368164,117.88481140136719,118.36966980250419,-0.03477105870842934,0.030127746984362602,-0.004631826188415289,0.007907779887318611,-0.8172653913497925,0.5762616991996765,0.9997532963752747,0.49164441227912903,0.16289663314819336,1.0,1.0,-0.9991466999053955,0.999336302280426,0.9840868711471558,0.9995613694190979,0.9541683793067932
33,33,/yh/study/new_data_2/model_dataset_new_2_flight/vi/vi_000033.jpg,-153.68882751464844,11.922432899475098,-32.37922698236686,18.282927238582708,0.0,107.02152252197266,-27.74225425720215,13.991843223571777,0.6057659387588501,-27.772829055786133,9.233684539794922,-0.18392491340637207,0.16544055938720703,0.2473842203617096,-3.2973785400390625,0.3004474639892578,3.1163792610168457,-0.3478671908378601,0.3015953302383423,-0.027836505323648453,0.04766174405813217,0.491618812084198,0.16283227503299713,0.9997519850730896,-32.645240783691406,17.447689056396484,36.0,36.0,-32.07873946586095,18.40692857739577,-32.30849183111899,18.01789585697315,0.05905109272098124,0.1918296492240787,3.02406644821167,121.47623252941109,125.96356964111328,121.16962432861328,121.53328992219589,-0.03478671982884407,0.03015953302383423,-0.004639417864382267,0.007943624630570412,-0.8173671960830688,0.5761171579360962,0.9997519850730896,0.491618812084198,0.16283227503299713,1.0,1.0,-0.9991536736488342,0.999340832233429,0.9842005968093872,0.9995659589767456,0.9540927410125732
34,34,/yh/study/new_data_2/model_dataset_new_2_flight/vi/vi_000034.jpg,-156.9862060546875,12.222880363464355,-32.49364550765675,18.18142120963034,0.0,110.32538604736328,-27.74225425720215,13.991843223571777,0.6029064059257507,-27.772829055786133,9.233684539794922,-0.18382927775382996,0.1652478724718094,0.24718426167964935,-4.9878997802734375,0.4790782928466797,4.814310073852539,-0.3477169871330261,0.30132633447647095,-0.027791447937488556,0.0474693663418293,0.49164047837257385,0.1628802865743637,0.9997530579566956,-32.64470291137695,17.44846534729004,36.0,36.0,-32.249440738398015,18.20972550619723,-32.40974472227736,17.900986030011765,0.019708563031779425,0.11605740879618288,3.024040937423706,124.63507468033045,129.2560577392578,124.45126342773438,124.70579618472412,-0.03477169945836067,0.030132634565234184,-0.004631908144801855,0.00791156105697155,-0.8172763586044312,0.5762459635734558,0.9997530579566956,0.49164047837257385,0.1628802865743637,1.0,1.0,-0.9991467595100403,0.9993360042572021,0.9840813875198364,0.9995614886283875,0.9541332125663757
35,35,/yh/study/new_data_2/model_dataset_new_2_flight/vi/vi_000035.jpg,-161.97410583496094,12.701958656311035,-32.59479970954666,18.06432343035552,0.0,115.31515502929688,-27.74225425720215,13.991843223571777,0.6020746231079102,-27.772829055786133,9.233684539794922,-0.18381842970848083,0.16515851020812988,0.24711646139621735,-4.9794769287109375,0.4782686233520508,4.805869102478027,-0.3477025330066681,0.3011947572231293,-0.027796562761068344,0.04739789664745331,0.4916537404060364,0.16292020678520203,0.9997534155845642,-32.644710540771484,17.448457717895508,36.0,36.0,-32.39003615924558,18.01704343880795,-32.49332284002936,17.786445718290373,-0.005640522272388204,0.05946307113338496,3.024049758911133,129.49038500778184,134.23805236816406,129.4164581298828,129.5805740597872,-0.03477025404572487,0.030119476839900017,-0.0046327607706189156,0.007899649441242218,-0.8172773718833923,0.5762446522712708,0.9997534155845642,0.4916537404060364,0.16292020678520203,1.0,1.0,-0.9991453886032104,0.9993352293968201,0.9840663075447083,0.9995604753494263,0.9541666507720947
36,36,/yh/study/new_data_2/model_dataset_new_2_flight/vi/vi_000036.jpg,-166.95358276367188,13.180227279663086,-32.678365148891054,17.949696615737338,0.0,120.28961944580078,-27.74225425720215,13.991843223571777,0.602973222732544,-27.772829055786133,9.233684539794922,-0.18387500941753387,0.16525419056415558,0.24722251296043396,-3.5107269287109375,0.36183738708496094,3.3326549530029297,-0.3477873206138611,0.301326721906662,-0.0278329998254776,0.04749547317624092,0.4916420578956604,0.16290278732776642,0.999752938747406,-32.64513397216797,17.447851181030273,36.0,36.0,-32.498963362301744,17.84590878942376,-32.55824485368458,17.68447107835828,-0.02018965466856908,0.0198422961285859,3.02407169342041,134.35989693076016,139.2136993408203,134.376220703125,134.47079632447245,-0.03477873280644417,0.03013267181813717,-0.004638833459466696,0.007915912196040154,-0.8173484206199646,0.576143741607666,0.999752938747406,0.4916420578956604,0.16290278732776642,1.0,1.0,-0.9991495609283447,0.999337911605835,0.9841452836990356,0.9995630383491516,0.954153299331665
37,37,/yh/study/new_data_2/model_dataset_new_2_flight/vi/vi_000037.jpg,-170.4643096923828,13.542064666748047,-32.74334515832131,17.84781545701503,0.0,123.79804229736328,-27.74225425720215,13.991843223571777,0.6030389666557312,-27.772829055786133,9.233684539794922,-0.18385465443134308,0.16522997617721558,0.2471911758184433,-3.208984375,0.3307361602783203,3.029653787612915,-0.34775489568710327,0.30129534006118774,-0.027821820229291916,0.04746661335229874,0.4916449189186096,0.16290752589702606,0.9997530579566956,-32.644981384277344,17.448070526123047,36.0,36.0,-32.57843450835315,17.704313374486865,-32.6054235047459,17.600390580003804,-0.026813416550954563,-0.0056629073547382405,3.0240604877471924,137.7882562559673,142.72276306152344,137.8746795654297,137.91860828080465,-0.034775491803884506,0.030129535123705864,-0.0046369703486561775,0.00791110284626484,-0.8173227310180664,0.5761800408363342,0.9997530579566956,0.4916449189186096,0.16290752589702606,1.0,1.0,-0.999148428440094,0.9993372559547424,0.9841194152832031,0.9995623230934143,0.9541453719139099
38,38,/yh/study/new_data_2/model_dataset_new_2_flight/vi/vi_000038.jpg,-173.6732940673828,13.872800827026367,-32.79050320399882,17.76371114341954,0.0,127.00595092773438,-27.74225425720215,13.991843223571777,0.6026042103767395,-27.772829055786133,9.233684539794922,-0.18383869528770447,0.16515403985977173,0.24712854623794556,-3.2170257568359375,0.33156585693359375,3.0377485752105713,-0.34772977232933044,0.3011857867240906,-0.027823634445667267,0.04739987477660179,0.4916549623012543,0.16293899714946747,0.9997534155845642,-32.64494323730469,17.448122024536133,36.0,36.0,-32.63223692129686,17.594727672649064,-32.63739014168226,17.53526974526828,-0.028078143266988074,-0.020255341524924392,3.0240659713745117,140.93651033194416,145.93109130859375,141.07366943359375,141.08345003832494,-0.034772977232933044,0.030118579044938087,-0.00463727256283164,0.007899979129433632,-0.8173167109489441,0.5761886835098267,0.9997534155845642,0.4916549623012543,0.16293899714946747,1.0,1.0,-0.9991469979286194,0.999336302280426,0.984099805355072,0.9995613098144531,0.9541762471199036
39,39,/yh/study/new_data_2/model_dataset_new_2_flight/vi/vi_000039.jpg,-176.89031982421875,14.204366683959961,-32.822452420863065,17.69851667040606,0.0,130.2227783203125,-27.74225425720215,13.991843223571777,0.603915810585022,-27.772829055786133,9.233684539794922,-0.18391039967536926,0.16532106697559357,0.24729353189468384,-3.1886749267578125,0.2908439636230469,3.00738525390625,-0.34783923625946045,0.3014231324195862,-0.027857724577188492,0.047556158155202866,0.4916345477104187,0.16288937628269196,0.9997525811195374,-32.64539337158203,17.447481155395508,36.0,36.0,-32.66546828494925,17.515014403743358,-32.657326629031644,17.487625370426574,-0.026079981151696185,-0.026977282282668026,3.024076223373413,144.11023385685922,149.14822387695312,144.28138732910156,144.2703577095626,-0.034783925861120224,0.03014231286942959,-0.004642954096198082,0.007926026359200478,-0.8173918128013611,0.5760821104049683,0.9997525811195374,0.4916345477104187,0.16288937628269196,1.0,1.0,-0.9991521239280701,0.9993396401405334,0.9841858148574829,0.9995647072792053,0.9541255235671997
40,40,/yh/study/new_data_2/model_dataset_new_2_flight/vi/vi_000040.jpg,-180.07899475097656,14.495210647583008,-32.84246337772778,17.65103500079551,0.0,133.41197204589844,-27.74225425720215,13.991843223571777,0.603053092956543,-27.772829055786133,9.233684539794922,-0.18388019502162933,0.1652681678533554,0.24723570048809052,-3.1923675537109375,0.2911815643310547,3.0111212730407715,-0.34779027104377747,0.30135247111320496,-0.027844280004501343,0.04749607667326927,0.49163979291915894,0.16289947926998138,0.9997528195381165,-32.64519119262695,17.44776725769043,36.0,36.0,-32.68340661018334,17.460648088143905,-32.66790782446314,17.45542409102803,-0.022276198880776234,-0.028259379343137492,3.0240674018859863,147.27034799366098,152.33758544921875,147.46336364746094,147.44080646987402,-0.03477902710437775,0.030135247856378555,-0.004640713334083557,0.007916012778878212,-0.8173581957817078,0.5761298537254333,0.9997528195381165,0.49163979291915894,0.16289947926998138,1.0,1.0,-0.9991500973701477,0.9993382096290588,0.9841452240943909,0.9995633959770203,0.9541400671005249
41,41,/yh/study/new_data_2/model_dataset_new_2_flight/vi/vi_000041.jpg,-183.2713623046875,14.786392211914062,-32.85301356276581,17.61878206313616,0.0,136.60545349121094,-27.74225425720215,13.991843223571777,0.6013386249542236,-27.772829055786133,9.233684539794922,-0.18382182717323303,0.16511893272399902,0.24709254503250122,-3.504638671875,0.31966304779052734,3.324410915374756,-0.3476971387863159,0.3011400103569031,-0.02782726287841797,0.047357574105262756,0.49165835976600647,0.1629502922296524,0.9997536540031433,-32.64485549926758,17.448251724243164,36.0,36.0,-32.69018402334392,17.427164711684892,-32.671800419902354,17.435716838288123,-0.01776441156615221,-0.02616047765369572,3.024062395095825,150.44501344516436,155.53114318847656,150.6500244140625,150.62286334041437,-0.03476971387863159,0.030114000663161278,-0.004637877456843853,0.007892929017543793,-0.8173016309738159,0.5762100219726562,0.9997536540031433,0.49165835976600647,0.1629502922296524,1.0,1.0,-0.9991459250450134,0.9993357062339783,0.98408043384552,0.9995607137680054,0.9541829228401184
42,42,/yh/study/new_data_2/model_dataset_new_2_flight/vi/vi_000042.jpg,-186.7760009765625,15.10605525970459,-32.8568452591124,17.598929483368057,0.0,140.11195373535156,-27.74225425720215,13.991843223571777,0.6030052304267883,-27.772829055786133,9.233684539794922,-0.1838473528623581,0.16517244279384613,0.24714729189872742,-3.4192047119140625,0.29877758026123047,3.238114595413208,-0.3477383852005005,0.3012131452560425,-0.027835387736558914,0.04741301387548447,0.49165138602256775,0.16293340921401978,0.9997532963752747,-32.645023345947266,17.448013305664062,36.0,36.0,-32.68956483146851,17.409556360634426,-32.67150042228867,17.42515310112685,-0.013330962356177645,-0.02233265488208289,3.0240702629089355,153.93934168583306,159.03765869140625,154.14877319335938,154.12194946171775,-0.03477383777499199,0.030121315270662308,-0.004639231599867344,0.007902169600129128,-0.8173296451568604,0.5761703252792358,0.9997532963752747,0.49165138602256775,0.16293340921401978,1.0,1.0,-0.9991480112075806,0.9993368983268738,0.9841165542602539,0.9995619058609009,0.9541729092597961
43,43,/yh/study/new_data_2/model_dataset_new_2_flight/vi/vi_000043.jpg,-190.19520568847656,15.40483283996582,-32.85657164829465,17.588417984215063,0.0,143.53346252441406,-27.74225425720215,13.991843223571777,0.5990614295005798,-27.772829055786133,9.233684539794922,-0.18373428285121918,0.16487595438957214,0.24686507880687714,-3.402618408203125,0.29732704162597656,3.2216081619262695,-0.347567617893219,0.30080166459083557,-0.027795806527137756,0.04712670296430588,0.4916962683200836,0.16304266452789307,0.9997544884681702,-32.644309997558594,17.449031829833984,36.0,36.0,-32.68483138464485,17.402820446244768,-32.66839738141852,17.421562105442707,-0.00929765476868313,-0.01773299190257409,3.024024724960327,157.35378548262662,162.4591064453125,157.5641632080078,157.53971731705894,-0.03475676104426384,0.030080167576670647,-0.004632634576410055,0.00785445049405098,-0.81721031665802,0.576339602470398,0.9997544884681702,0.4916962683200836,0.16304266452789307,1.0,1.0,-0.9991375803947449,0.9993311166763306,0.983932375907898,0.999555766582489,0.954200267791748
44,44,/yh/study/new_data_2/model_dataset_new_2_flight/vi/vi_000044.jpg,-193.5978240966797,15.702159881591797,-32.85335052633066,17.584538256666963,0.0,146.93885803222656,-27.74225425720215,13.991843223571777,0.5935900211334229,-27.772829055786133,9.233684539794922,-0.18365055322647095,0.16458244621753693,0.24660679697990417,-3.1149139404296875,0.2721872329711914,2.9332377910614014,-0.34743520617485046,0.30040818452835083,-0.027809325605630875,0.04682880640029907,0.49175116419792175,0.16319772601127625,0.9997549653053284,-32.643898010253906,17.449626922607422,36.0,36.0,-32.6776950361872,17.403829113540134,-32.66398818967706,17.422403041927353,-0.005933658348201009,-0.013174494179361704,3.0239579677581787,160.75549487266554,165.86439514160156,160.96340942382812,160.94302959827968,-0.034743521362543106,0.030040819197893143,-0.004634887911379337,0.007804801221936941,-0.8171405792236328,0.5764385461807251,0.9997549653053284,0.49175116419792175,0.16319772601127625,1.0,1.0,-0.9991258978843689,0.9993258714675903,0.9837313890457153,0.9995500445365906,0.9541671872138977
45,45,/yh/study/new_data_2/model_dataset_new_2_flight/vi/vi_000045.jpg,-196.71273803710938,15.974347114562988,-32.84885257079049,17.585093592856353,0.0,150.05673217773438,-27.74225425720215,13.991843223571777,0.5992608070373535,-27.772829055786133,9.233684539794922,-0.18377941846847534,0.16488806903362274,0.24690677225589752,-3.247894287109375,0.30613040924072266,3.067368268966675,-0.34763097763061523,0.3008024990558624,-0.027841530740261078,0.047168098390102386,0.49169260263442993,0.1630530059337616,0.9997544884681702,-32.6448974609375,17.44820213317871,36.0,36.0,-32.66992184802526,17.40922854774799,-32.65977286528704,17.425034818822514,-0.0034428489867584866,-0.00929524746297368,3.0240771770477295,163.8718019194767,168.98211669921875,164.074462890625,164.05937911769152,-0.03476309776306152,0.030080249533057213,-0.004640255123376846,0.007861349731683731,-0.8173078298568726,0.5762014389038086,0.9997544884681702,0.49169260263442993,0.1630530059337616,1.0,1.0,-0.9991412162780762,0.9993329644203186,0.984033465385437,0.9995576739311218,0.9542543888092041
46,46,/yh/study/new_data_2/model_dataset_new_2_flight/vi/vi_000046.jpg,-199.96063232421875,16.28047752380371,-32.84477080637236,17.58802365694517,0.0,153.3083953857422,-27.74225425720215,13.991843223571777,0.6010977625846863,-27.772829055786133,9.233684539794922,-0.18382899463176727,0.1651400774717331,0.24711200594902039,-3.552520751953125,0.33484458923339844,3.3729636669158936,-0.347703754901886,0.301167756319046,-0.027836821973323822,0.047380365431308746,0.49165454506874084,0.16294242441654205,0.9997535347938538,-32.644989013671875,17.448062896728516,36.0,36.0,-32.6632157142738,17.41573957135954,-32.65582362634257,17.428848738431284,-0.0016286492491934539,-0.006077936240149305,3.024062395095825,167.12097668378527,172.2335968017578,167.31971740722656,167.3087498306037,-0.03477037698030472,0.030116776004433632,-0.004639470484107733,0.00789672788232565,-0.8173236846923828,0.576178789138794,0.9997535347938538,0.49165454506874084,0.16294242441654205,1.0,1.0,-0.9991464018821716,0.9993357062339783,0.9840990304946899,0.999561071395874,0.9541662335395813
47,47,/yh/study/new_data_2/model_dataset_new_2_flight/vi/vi_000047.jpg,-203.51315307617188,16.61532211303711,-32.84087601477979,17.592081948371817,0.0,156.86557006835938,-27.74225425720215,13.991843223571777,0.5949980020523071,-27.772829055786133,9.233684539794922,-0.1836744099855423,0.1647203117609024,0.24671657383441925,-3.2384490966796875,0.3052406311035156,3.0580050945281982,-0.3474692106246948,0.30059778690338135,-0.02779626101255417,0.04695727676153183,0.49172383546829224,0.16311639547348022,0.9997547268867493,-32.64395523071289,17.449539184570312,36.0,36.0,-32.65745227559176,17.422770802191135,-32.6519783642825,17.433627086092613,-0.00028521711562732254,-0.0034135378200123626,3.0239779949188232,170.67507204362477,175.7904815673828,170.87123107910156,170.8631342535765,-0.0347469225525856,0.030059779062867165,-0.004632710479199886,0.007826212793588638,-0.8171508312225342,0.5764239430427551,0.9997547268867493,0.49172383546829224,0.16311639547348022,1.0,1.0,-0.9991304874420166,0.9993276596069336,0.9838032722473145,0.9995522499084473,0.9541749954223633
48,48,/yh/study/new_data_2/model_dataset_new_2_flight/vi/vi_000048.jpg,-206.75160217285156,16.920562744140625,-32.83686916308297,17.596451489822613,0.0,160.10867309570312,-27.74225425720215,13.991843223571777,0.5943882465362549,-27.772829055786133,9.233684539794922,-0.1836881786584854,0.16466765105724335,0.24669167399406433,-3.441436767578125,0.3333625793457031,3.262113332748413,-0.3474917411804199,0.300514280796051,-0.027815550565719604,0.04692613333463669,0.4917309880256653,0.1631450355052948,0.9997549653053284,-32.64423751831055,17.449142456054688,36.0,36.0,-32.652263581398124,17.4302135482726,-32.64900850164561,17.437890425938065,0.0005136593165714097,-0.0015294436944904414,3.02400541305542,173.91604636564054,179.03330993652344,174.10816955566406,174.1033622621097,-0.03474917635321617,0.030051428824663162,-0.004635925404727459,0.007821022532880306,-0.8171975016593933,0.5763578414916992,0.9997549653053284,0.4917309880256653,0.1631450355052948,1.0,1.0,-0.9991308450698853,0.9993278384208679,0.9838330745697021,0.9995523691177368,0.9542219638824463
49,49,/yh/study/new_data_2/model_dataset_new_2_flight/vi/vi_000049.jpg,-210.1930389404297,17.253925323486328,-32.8339116905089,17.600664311096356,0.0,163.55564880371094,-27.74225425720215,13.991843223571777,0.5956202745437622,-27.772829055786133,9.233684539794922,-0.18369773030281067,0.16468925774097443,0.24671320617198944,-3.125152587890625,0.30272483825683594,2.9446918964385986,-0.3475078344345093,0.30053767561912537,-0.027815327048301697,0.04695936292409897,0.4917270541191101,0.1631368100643158,0.9997549653053284,-32.6442756652832,17.449087142944336,36.0,36.0,-32.648494842329036,17.436360982243574,-32.64678369732253,17.441522250921928,0.0009336162828262871,-0.00026274173296876786,3.0240166187286377,177.35946618880857,182.47994995117188,177.5488739013672,177.54635435135734,-0.03475078567862511,0.030053768306970596,-0.004635888151824474,0.007826561108231544,-0.8172041177749634,0.576348602771759,0.9997549653053284,0.4917270541191101,0.1631368100643158,1.0,1.0,-0.9991323947906494,0.9993286728858948,0.9838629961013794,0.9995530843734741,0.954226553440094
50,50,/yh/study/new_data_2/model_dataset_new_2_flight/vi/vi_000050.jpg,-213.3181915283203,17.556650161743164,-32.831696771505115,17.6043172159086,0.0,166.68621826171875,-27.74225425720215,13.991843223571777,0.5951547026634216,-27.772829055786133,9.233684539794922,-0.18367360532283783,0.1646459847688675,0.24666635692119598,-3.431427001953125,0.33239173889160156,3.252082347869873,-0.34746840596199036,0.300485759973526,-0.027811795473098755,0.046904176473617554,0.49173587560653687,0.16315631568431854,0.9997549653053284,-32.64411544799805,17.449316024780273,36.0,36.0,-32.645850081039704,17.44125950918896,-32.645146576864576,17.444526939371244,0.001106273467350899,0.0005391657977132767,3.0239930152893066,180.48650105132498,185.61016845703125,180.67410278320312,180.67307974252208,-0.034746840596199036,0.03004857711493969,-0.004635299555957317,0.007817363366484642,-0.8171771764755249,0.5763866901397705,0.9997549653053284,0.49173587560653687,0.16315631568431854,1.0,1.0,-0.9991296529769897,0.9993273615837097,0.9838094115257263,0.9995517730712891,0.9542050361633301
51,51,/yh/study/new_data_2/model_dataset_new_2_flight/vi/vi_000051.jpg,-216.74961853027344,17.889041900634766,-32.83003493816016,17.607279533807095,0.0,170.11544799804688,-27.74225425720215,13.991843223571777,0.5967065095901489,-27.772829055786133,9.233684539794922,-0.18370702862739563,0.1646798551082611,0.24671386182308197,-3.1033477783203125,0.29263877868652344,2.9224436283111572,-0.347523033618927,0.3005209267139435,-0.027823686599731445,0.04695781320333481,0.4917285144329071,0.16314154863357544,0.9997549653053284,-32.64439010620117,17.448925018310547,36.0,36.0,-32.644040303397226,17.44506610516896,-32.64418217071275,17.446631140217516,0.0010714557475116867,0.0009232637955910942,3.0240318775177,183.91979942009425,189.04754638671875,184.1057586669922,184.10596792180633,-0.03475230559706688,0.030052093788981438,-0.004637281410396099,0.007826302200555801,-0.8172231912612915,0.5763214230537415,0.9997549653053284,0.4917285144329071,0.16314154863357544,1.0,1.0,-0.9991332292556763,0.9993292093276978,0.9838831424713135,0.9995534420013428,0.9542502164840698
52,52,/yh/study/new_data_2/model_dataset_new_2_flight/vi/vi_000052.jpg,-219.85296630859375,18.18168067932129,-32.82910420357692,17.609417292429352,0.0,173.21734619140625,-27.74225425720215,13.991843223571777,0.5995708107948303,-27.772829055786133,9.233684539794922,-0.18377502262592316,0.1649094521999359,0.24691776931285858,-3.4125213623046875,0.3217926025390625,3.232555627822876,-0.3476221561431885,0.30083632469177246,-0.027835488319396973,0.047178804874420166,0.4916881024837494,0.16303808987140656,0.9997543692588806,-32.644798278808594,17.448339462280273,36.0,36.0,-32.64311071496524,17.447554404013108,-32.64379512958268,17.447872795139883,0.0009034836087926233,0.0010014047895891545,3.024068832397461,187.02473762061618,192.15640258789062,187.2095947265625,187.21060933489628,-0.03476221486926079,0.030083632096648216,-0.004639248363673687,0.007863134145736694,-0.8172917366027832,0.5762242674827576,0.9997543692588806,0.4916881024837494,0.16303808987140656,1.0,1.0,-0.9991412162780762,0.9993329048156738,0.9840249419212341,0.9995577931404114,0.954242467880249
53,53,/yh/study/new_data_2/model_dataset_new_2_flight/vi/vi_000053.jpg,-223.26548767089844,18.50347328186035,-32.828789190646255,17.610882203815418,0.0,176.6288604736328,-27.74225425720215,13.991843223571777,0.5924770832061768,-27.772829055786133,9.233684539794922,-0.18363599479198456,0.16451480984687805,0.2465507984161377,-3.40045166015625,0.3206520080566406,3.2206027507781982,-0.3474113941192627,0.30032259225845337,-0.02782079204916954,0.046752750873565674,0.4917660355567932,0.16324104368686676,0.9997548460960388,-32.643760681152344,17.449817657470703,36.0,36.0,-32.64289164597388,17.448874199929474,-32.64324409508658,17.449256832050146,0.0008169839494624614,0.0010953120995939622,3.0239367485046387,190.43879028940268,195.57528686523438,190.6246337890625,190.62515867062038,-0.03474114090204239,0.030032260343432426,-0.004636798985302448,0.007792125456035137,-0.8171181082725525,0.5764703154563904,0.9997548460960388,0.4917660355567932,0.16324104368686676,1.0,1.0,-0.9991228580474854,0.9993249177932739,0.9836706519126892,0.9995487928390503,0.9541531801223755
54,54,/yh/study/new_data_2/model_dataset_new_2_flight/vi/vi_000054.jpg,-226.6659393310547,18.824125289916992,-32.82809272634268,17.61188159905381,0.0,180.0289306640625,-27.74225425720215,13.991843223571777,0.5979231595993042,-27.772829055786133,9.233684539794922,-0.18373338878154755,0.16473913192749023,0.24677304923534393,-3.2380828857421875,0.33718109130859375,3.059213399887085,-0.3475620150566101,0.3005962371826172,-0.02783450484275818,0.047026969492435455,0.49171802401542664,0.16311775147914886,0.9997548460960388,-32.644649505615234,17.448556900024414,36.0,36.0,-32.64242711113712,17.45035214414974,-32.64332843363969,17.44962405831993,0.0005957772940601717,0.0009166219739191067,3.0240557193756104,193.84163719675374,198.9823760986328,194.02615356445312,194.0274794792876,-0.03475620225071907,0.03005962446331978,-0.004639084450900555,0.007837828248739243,-0.8172663450241089,0.5762603282928467,0.9997548460960388,0.49171802401542664,0.16311775147914886,1.0,1.0,-0.9991362690925598,0.9993305206298828,0.9839491248130798,0.9995549917221069,0.9542608261108398
55,55,/yh/study/new_data_2/model_dataset_new_2_flight/vi/vi_000055.jpg,-229.90402221679688,19.161306381225586,-32.828277735058144,17.612468025472992,0.0,183.26727294921875,-27.74225425720215,13.991843223571777,0.5968915224075317,-27.772829055786133,9.233684539794922,-0.18369580805301666,0.16471785306930542,0.24673086404800415,-3.248870849609375,0.3383026123046875,3.0700862407684326,-0.3475019633769989,0.30057892203330994,-0.027813203632831573,0.04698370397090912,0.49172255396842957,0.163121297955513,0.9997548460960388,-32.64424514770508,17.449129104614258,36.0,36.0,-32.64273265634563,17.450540680293848,-32.64334606792068,17.449968196454176,0.0004452310439489783,0.0007761203942023941,3.0240137577056885,197.08183062698555,202.2278594970703,197.2672119140625,197.26809938024564,-0.03475019708275795,0.030057892203330994,-0.0046355342492461205,0.00783061794936657,-0.8171991109848022,0.5763555765151978,0.9997548460960388,0.49172255396842957,0.163121297955513,1.0,1.0,-0.9991327524185181,0.9993287920951843,0.9838695526123047,0.9995533227920532,0.9542146921157837
56,56,/yh/study/new_data_2/model_dataset_new_2_flight/vi/vi_000056.jpg,-233.15289306640625,19.499608993530273,-32.82825789558816,17.612790740184572,0.0,186.51695251464844,-27.74225425720215,13.991843223571777,0.5936524271965027,-27.772829055786133,9.233684539794922,-0.1836504191160202,0.16454100608825684,0.24657903611660004,-3.5621185302734375,0.37092018127441406,3.384765625,-0.3474348485469818,0.30034351348876953,-0.027818556874990463,0.04680321365594864,0.4917575716972351,0.16321565210819244,0.9997550845146179,-32.64397048950195,17.449520111083984,36.0,36.0,-32.642900836876734,17.45074431684838,-32.64333464914118,17.45024782344269,0.0003387628709956402,0.0006542687313531128,3.0239715576171875,200.33352075836567,205.48446655273438,200.5194091796875,200.52003116370219,-0.03474348410964012,0.030034352093935013,-0.004636426456272602,0.007800535764545202,-0.8171529769897461,0.5764208436012268,0.9997550845146179,0.4917575716972351,0.16321565210819244,1.0,1.0,-0.999125599861145,0.9993259310722351,0.9837364554405212,0.9995498657226562,0.9541993141174316
57,57,/yh/study/new_data_2/model_dataset_new_2_flight/vi/vi_000057.jpg,-236.7150115966797,19.870529174804688,-32.8281979313611,17.612898392596406,0.0,190.0806427001953,-27.74225425720215,13.991843223571777,0.591156005859375,-27.772829055786133,9.233684539794922,-0.18363280594348907,0.1644591987133026,0.2465113252401352,-5.2339324951171875,0.5297660827636719,5.0634942054748535,-0.3474041819572449,0.300235390663147,-0.027833309024572372,0.04671787470579147,0.4917735457420349,0.16326412558555603,0.9997552037239075,-32.64399719238281,17.449487686157227,36.0,36.0,-32.642995886270185,17.450902092174044,-32.64340197967086,17.450328460452365,0.0002390975872717808,0.000513485433229693,3.023951530456543,203.89931261126193,209.05543518066406,204.08538818359375,204.08596037742186,-0.03474041819572449,0.030023539438843727,-0.004638885147869587,0.007786312606185675,-0.8171571493148804,0.5764151811599731,0.9997552037239075,0.4917735457420349,0.16326412558555603,1.0,1.0,-0.999121904373169,0.9993241429328918,0.9836780428886414,0.9995481967926025,0.9541874527931213
58,58,/yh/study/new_data_2/model_dataset_new_2_flight/vi/vi_000058.jpg,-241.94894409179688,20.40029525756836,-32.828246185555244,17.612899512551607,0.0,195.3179473876953,-27.74225425720215,13.991843223571777,0.5952271819114685,-27.772829055786133,9.233684539794922,-0.18371082842350006,0.16469936072826385,0.24672971665859222,-4.7742919921875,0.4832420349121094,4.601619720458984,-0.3475244343280792,0.30054399371147156,-0.02782668173313141,0.04698022082448006,0.49172210693359375,0.16312214732170105,0.9997550845146179,-32.644554138183594,17.448692321777344,36.0,36.0,-32.643162882083594,17.450841945885596,-32.64372712503961,17.449970136402666,0.00010061852258775458,0.0002995219969270123,3.024040937423706,209.139273853174,214.3025360107422,209.3251953125,209.32600953494028,-0.03475244343280792,0.030054399743676186,-0.004637780599296093,0.00783003680408001,-0.8172504305839539,0.576282799243927,0.9997550845146179,0.49172210693359375,0.16312214732170105,1.0,1.0,-0.9991336464881897,0.9993288516998291,0.9838999509811401,0.9995536208152771,0.9542676210403442
59,59,/yh/study/new_data_2/model_dataset_new_2_flight/vi/vi_000059.jpg,-246.72323608398438,20.88353729248047,-32.82865323395758,17.61277531486221,0.0,200.09637451171875,-27.74225425720215,13.991843223571777,0.6094422340393066,-27.772829055786133,9.233684539794922,-0.1840716004371643,0.165676087141037,0.24765080213546753,-3.382598876953125,0.3059864044189453,3.201603412628174,-0.3480800688266754,0.30192506313323975,-0.027962425723671913,0.04790598899126053,0.49160096049308777,0.16281171143054962,0.9997500777244568,-32.646392822265625,17.446033477783203,36.0,36.0,-32.64362650651702,17.45026965839959,-32.64474842373648,17.448551617362277,-0.0001747274884645043,-0.00012212742447723562,3.024074077606201,213.91958876293026,219.0894012451172,214.1044464111328,214.10604383222622,-0.03480800613760948,0.030192507430911064,-0.004660404287278652,0.00798433180898428,-0.8175608515739441,0.5758423805236816,0.9997500777244568,0.49160096049308777,0.16281171143054962,1.0,1.0,-0.9991617798805237,0.9993467926979065,0.9843555688858032,0.9995719790458679,0.9539479613304138
60,60,/yh/study/new_data_2/model_dataset_new_2_flight/vi/vi_000060.jpg,-250.1058349609375,21.189523696899414,-32.83005229418698,17.612307040235137,0.0,203.4820556640625,-27.74225425720215,13.991843223571777,0.6044580340385437,-27.772829055786133,9.233684539794922,-0.18413403630256653,0.16600047051906586,0.24791429936885834,-3.079681396484375,0.27858543395996094,2.897735357284546,-0.34817829728126526,0.3024132251739502,-0.027968496084213257,0.04816685616970062,0.49157071113586426,0.16268736124038696,0.9997478127479553,-32.64631652832031,17.446121215820312,36.0,36.0,-32.644923151224944,17.4484294899378,-32.645488254379664,17.447493337771892,-0.0003134176670152431,-0.000351882133782206,3.0239667892456055,217.30522822163695,222.48004150390625,217.49172973632812,217.49254051793355,-0.034817829728126526,0.03024132363498211,-0.004661416169255972,0.008027809672057629,-0.8175496459007263,0.5758582353591919,0.9997478127479553,0.49157071113586426,0.16268736124038696,1.0,1.0,-0.9991642832756042,0.9993493556976318,0.9843367338180542,0.9995751976966858,0.9536556005477905
61,61,/yh/study/new_data_2/model_dataset_new_2_flight/vi/vi_000061.jpg,-253.18551635742188,21.468109130859375,-32.83086098292828,17.61156312920585,0.0,206.5648651123047,-27.74225425720215,13.991843223571777,0.6074554324150085,-27.772829055786133,9.233684539794922,-0.18399696052074432,0.16572974622249603,0.24763123691082,-3.382537841796875,0.3059825897216797,3.2016143798828125,-0.3479628562927246,0.30202361941337585,-0.027881350368261337,0.04790028557181358,0.4915855824947357,0.1627325713634491,0.9997501969337463,-32.645721435546875,17.446990966796875,36.0,36.0,-32.64580167204668,17.44714145563811,-32.64576913103584,17.44708042282853,-0.00030543130458596794,-0.00036686108264696995,3.0239977836608887,220.38840053930858,225.56719970703125,220.57644653320312,220.5764012276677,-0.03479628637433052,0.030202362686395645,-0.004646891728043556,0.007983380928635597,-0.8174485564231873,0.576001763343811,0.9997501969337463,0.4915855824947357,0.1627325713634491,1.0,1.0,-0.9991570711135864,0.999342679977417,0.984230637550354,0.9995693564414978,0.953869104385376
62,62,/yh/study/new_data_2/model_dataset_new_2_flight/vi/vi_000062.jpg,-256.56805419921875,21.774091720581055,-32.831000404044225,17.61088634869476,0.0,209.95114135742188,-27.74225425720215,13.991843223571777,0.6033025979995728,-27.772829055786133,9.233684539794922,-0.18418563902378082,0.1660974621772766,0.2480175793170929,-3.2137451171875,0.255096435546875,3.0308663845062256,-0.3482661247253418,0.3025481700897217,-0.027989350259304047,0.04827272146940231,0.49156615138053894,0.1626710742712021,0.9997468590736389,-32.6464958190918,17.44585418701172,36.0,36.0,-32.64607456234043,17.446713561745884,-32.646245408782455,17.446365030558614,-0.0003473612130485661,-0.0004523991869545571,3.023953914642334,223.77578403373613,228.95809936523438,223.96337890625,223.963625775,-0.0348266139626503,0.030254816636443138,-0.004664891865104437,0.008045453578233719,-0.8175804018974304,0.5758143663406372,0.9997468590736389,0.49156615138053894,0.1626710742712021,1.0,1.0,-0.9991663098335266,0.9993512034416199,0.9843681454658508,0.9995769262313843,0.9535824060440063
63,63,/yh/study/new_data_2/model_dataset_new_2_flight/vi/vi_000063.jpg,-259.78179931640625,22.02918815612793,-32.83167128144108,17.610529442461345,0.0,213.168212890625,-27.74225425720215,13.991843223571777,0.5911238193511963,-27.772829055786133,9.233684539794922,-0.1843871772289276,0.1664903610944748,0.24843041598796844,-3.2093505859375,0.2547492980957031,3.0262506008148193,-0.3486081659793854,0.3031187951564789,-0.028076957911252975,0.04865794628858566,0.49155139923095703,0.16257980465888977,0.9997428059577942,-32.647239685058594,17.44475555419922,36.0,36.0,-32.64659276999551,17.44591263137166,-32.64685513525485,17.44544336288535,-0.00041175208462585785,-0.0005675691866453211,3.023848056793213,226.99313901507008,232.17869567871094,227.18081665039062,227.18119108875266,-0.03486081585288048,0.030311880633234978,-0.004679493140429258,0.008109658025205135,-0.817707896232605,0.5756334066390991,0.9997428059577942,0.49155139923095703,0.16257980465888977,1.0,1.0,-0.9991742372512817,0.9993587136268616,0.9844270348548889,0.999583899974823,0.95318603515625
64,64,/yh/study/new_data_2/model_dataset_new_2_flight/vi/vi_000064.jpg,-262.99114990234375,22.283937454223633,-32.83248864467084,17.609991127710128,0.0,216.38108825683594,-27.74225425720215,13.991843223571777,0.5905868411064148,-27.772829055786133,9.233684539794922,-0.18439407646656036,0.16652946174144745,0.2484617382287979,-3.534088134765625,0.28052330017089844,3.351633310317993,-0.34861475229263306,0.3031792938709259,-0.028086736798286438,0.04868699610233307,0.49154847860336304,0.1625576913356781,0.9997424483299255,-32.64741897583008,17.44449806213379,36.0,36.0,-32.64726688733948,17.444875793698703,-32.647328568908755,17.44472259949185,-0.0004268902550372564,-0.0006051668035117717,3.0238234996795654,230.20611444135744,235.39500427246094,230.39456176757812,230.39464843372485,-0.034861475229263306,0.03031793050467968,-0.0046811229549348354,0.008114499971270561,-0.8177380561828613,0.5755906701087952,0.9997424483299255,0.49154847860336304,0.1625576913356781,1.0,1.0,-0.9991732835769653,0.9993575811386108,0.9844074249267578,0.9995837211608887,0.9531353116035461
65,65,/yh/study/new_data_2/model_dataset_new_2_flight/vi/vi_000065.jpg,-266.5252380371094,22.56446075439453,-32.83296970332262,17.609308333584593,0.0,219.91928100585938,-27.74225425720215,13.991843223571777,0.5881592035293579,-27.772829055786133,9.233684539794922,-0.18441003561019897,0.16656143963336945,0.24849502742290497,-3.20867919921875,0.2765026092529297,3.0262668132781982,-0.34864094853401184,0.3032180070877075,-0.028095196932554245,0.048733603209257126,0.4915471374988556,0.16255506873130798,0.9997420907020569,-32.64744567871094,17.444456100463867,36.0,36.0,-32.64775545916379,17.444117432688337,-32.647629823460605,17.444254784040666,-0.0003960561710980152,-0.000571457411837553,3.023815155029297,233.74479633673997,238.93682861328125,233.93382263183594,233.93364899670985,-0.034864094108343124,0.030321801081299782,-0.004682532977312803,0.008122267201542854,-0.8177427649497986,0.5755839943885803,0.9997420907020569,0.4915471374988556,0.16255506873130798,1.0,1.0,-0.9991735219955444,0.9993579387664795,0.9844167232513428,0.9995840787887573,0.9531001448631287
66,66,/yh/study/new_data_2/model_dataset_new_2_flight/vi/vi_000066.jpg,-269.7339172363281,22.84096336364746,-32.83328745262669,17.608871640713335,0.0,223.12887573242188,-27.74225425720215,13.991843223571777,0.5882699489593506,-27.772829055786133,9.233684539794922,-0.18442302942276,0.16657979786396027,0.2485169619321823,-3.20819091796875,0.276458740234375,3.025763750076294,-0.34866970777511597,0.3032500743865967,-0.028088334947824478,0.048741281032562256,0.4915468096733093,0.16254369914531708,0.9997419714927673,-32.647544860839844,17.44431495666504,36.0,36.0,-32.6480258796317,17.44368332662883,-32.64783079587608,17.443939492836286,-0.0003481778312351111,-0.0005085879396816091,3.0238122940063477,236.95839967325819,242.15341186523438,237.1477813720703,237.147507366853,-0.03486697003245354,0.030325008556246758,-0.0046813893131911755,0.008123546838760376,-0.8177591562271118,0.575560450553894,0.9997419714927673,0.4915468096733093,0.16254369914531708,1.0,1.0,-0.9991744160652161,0.9993585348129272,0.984412431716919,0.9995845556259155,0.9530952572822571
67,67,/yh/study/new_data_2/model_dataset_new_2_flight/vi/vi_000067.jpg,-272.9421081542969,23.117422103881836,-32.833501594226206,17.60857444913881,0.0,226.3362579345703,-27.74225425720215,13.991843223571777,0.5881534814834595,-27.772829055786133,9.233684539794922,-0.18439429998397827,0.1665446162223816,0.24847206473350525,-3.53009033203125,0.30419921875,3.3485264778137207,-0.348618745803833,0.30320385098457336,-0.02807663381099701,0.04869481921195984,0.4915463924407959,0.16254623234272003,0.9997424483299255,-32.64740753173828,17.44451332092285,36.0,36.0,-32.64817897370732,17.443430904896605,-32.64786610485664,17.443869893533055,-0.0002713921392765155,-0.0004008493580404137,3.023815393447876,240.17179340360093,245.36961364746094,240.36166381835938,240.36121142313817,-0.03486187383532524,0.030320385470986366,-0.004679439123719931,0.008115803822875023,-0.8177363276481628,0.5755932331085205,0.9997424483299255,0.4915463924407959,0.16254623234272003,1.0,1.0,-0.9991731643676758,0.9993574619293213,0.9843961000442505,0.9995836615562439,0.9531247615814209
68,68,/yh/study/new_data_2/model_dataset_new_2_flight/vi/vi_000068.jpg,-276.4721984863281,23.421621322631836,-32.83350775448707,17.608470313918733,0.0,229.86585998535156,-27.74225425720215,13.991843223571777,0.5931320190429688,-27.772829055786133,9.233684539794922,-0.18434955179691315,0.16647005081176758,0.2483888864517212,-3.386199951171875,0.33624839782714844,3.2063486576080322,-0.348541796207428,0.30309632420539856,-0.028056886047124863,0.048618584871292114,0.49154800176620483,0.16255953907966614,0.9997432827949524,-32.64725875854492,17.444732666015625,36.0,36.0,-32.648137496995915,17.443469044175014,-32.64778111258822,17.443981523309972,-0.00018392666200355262,-0.00027507440503059125,3.023836851119995,243.70803094312626,248.9086456298828,243.89817810058594,243.89768077047012,-0.03485418111085892,0.030309632420539856,-0.0046761478297412395,0.008103097788989544,-0.8177106380462646,0.5756295323371887,0.9997432827949524,0.49154800176620483,0.16255953907966614,1.0,1.0,-0.9991716146469116,0.9993558526039124,0.9843829274177551,0.9995822906494141,0.9532080888748169
69,69,/yh/study/new_data_2/model_dataset_new_2_flight/vi/vi_000069.jpg,-279.8583984375,23.757869720458984,-32.833376959761445,17.60850905177612,0.0,233.2519989013672,-27.74225425720215,13.991843223571777,0.5902780294418335,-27.772829055786133,9.233684539794922,-0.18439482152462006,0.16652806103229523,0.24846135079860687,-3.09356689453125,0.3071880340576172,2.9125704765319824,-0.3486211895942688,0.30317991971969604,-0.028077449649572372,0.048680782318115234,0.4915488660335541,0.162555992603302,0.9997425675392151,-32.647369384765625,17.444564819335938,36.0,36.0,-32.647965039250224,17.44370644890494,-32.647723463420185,17.444054572783315,-0.00012463802643021473,-0.000189636264319534,3.023822546005249,247.10154971733937,252.30523681640625,247.29164123535156,247.2912899453985,-0.03486211970448494,0.030317991971969604,-0.0046795750968158245,0.008113464340567589,-0.8177300691604614,0.5756019353866577,0.9997425675392151,0.4915488660335541,0.162555992603302,1.0,1.0,-0.9991737008094788,0.999358057975769,0.9844037294387817,0.9995837807655334,0.9531352519989014
70,70,/yh/study/new_data_2/model_dataset_new_2_flight/vi/vi_000070.jpg,-282.95196533203125,24.0650577545166,-32.83336531119758,17.608639009359266,0.0,236.34593200683594,-27.74225425720215,13.991843223571777,0.5968122482299805,-27.772829055786133,9.233684539794922,-0.18431001901626587,0.16638348996639252,0.24830153584480286,-3.385467529296875,0.33617401123046875,3.2056572437286377,-0.3484763503074646,0.30297529697418213,-0.028039250522851944,0.048526570200920105,0.4915529787540436,0.16257940232753754,0.9997441172599792,-32.64717102050781,17.44486427307129,36.0,36.0,-32.64784810144661,17.443864936518995,-32.64757350200344,17.444270231137523,-5.7244585984241514e-05,-9.016702133383729e-05,3.023852825164795,250.20191729759907,255.40843200683594,250.39231872558594,250.3919395604216,-0.03484763577580452,0.030297530815005302,-0.004673208575695753,0.00808776170015335,-0.8176956176757812,0.5756507515907288,0.9997441172599792,0.4915529787540436,0.16257940232753754,1.0,1.0,-0.9991700053215027,0.9993541836738586,0.9843650460243225,0.9995807409286499,0.9532760381698608
71,71,/yh/study/new_data_2/model_dataset_new_2_flight/vi/vi_000071.jpg,-286.3374328613281,24.40123176574707,-32.83312835211862,17.608713435378085,0.0,239.7322540283203,-27.74225425720215,13.991843223571777,0.6017311811447144,-27.772829055786133,9.233684539794922,-0.184246227145195,0.16624139249324799,0.24815896153450012,-3.230438232421875,0.3568153381347656,3.052147388458252,-0.3483690619468689,0.302767276763916,-0.02801339700818062,0.04839307442307472,0.49156028032302856,0.16262075304985046,0.9997455477714539,-32.646934509277344,17.445220947265625,36.0,36.0,-32.64763074658942,17.44418006411619,-32.64734837801684,17.44460220852591,1.2055589428885155e-05,1.34375738081255e-05,3.0238966941833496,253.59528921091263,258.8045959472656,253.78582763671875,253.7854480854764,-0.03483690693974495,0.03027672879397869,-0.004668899811804295,0.008065512403845787,-0.8176544904708862,0.575709342956543,0.9997455477714539,0.49156028032302856,0.16262075304985046,1.0,1.0,-0.9991678595542908,0.999352216720581,0.9843559265136719,0.999578595161438,0.9534204006195068
72,72,/yh/study/new_data_2/model_dataset_new_2_flight/vi/vi_000072.jpg,-289.56787109375,24.758047103881836,-32.83283715866344,17.608906906504192,0.0,242.9640655517578,-27.74225425720215,13.991843223571777,0.6074680089950562,-27.772829055786133,9.233684539794922,-0.18415109813213348,0.16600386798381805,0.24792924523353577,-3.22314453125,0.3560066223144531,3.0449271202087402,-0.3482140898704529,0.30242103338241577,-0.027968227863311768,0.04816846176981926,0.49157366156578064,0.16268058121204376,0.9997476935386658,-32.646663665771484,17.445621490478516,36.0,36.0,-32.64733632242741,17.44461564609972,-32.647063517312716,17.445023580056368,7.900865764229796e-05,0.00011355457512320532,3.0239593982696533,256.83455346820415,262.046875,257.0252380371094,257.0248658764142,-0.03482140973210335,0.030242104083299637,-0.00466137146577239,0.008028076961636543,-0.817608118057251,0.575775146484375,0.9997476935386658,0.49157366156578064,0.16268058121204376,1.0,1.0,-0.9991640448570251,0.9993484020233154,0.9843220710754395,0.9995748996734619,0.9536490440368652
73,73,/yh/study/new_data_2/model_dataset_new_2_flight/vi/vi_000073.jpg,-292.791015625,25.11405372619629,-32.83245306417916,17.60909716831428,0.0,246.18907165527344,-27.74225425720215,13.991843223571777,0.6043570637702942,-27.772829055786133,9.233684539794922,-0.18392924964427948,0.16552524268627167,0.24744407832622528,-3.524017333984375,0.38924217224121094,3.347571849822998,-0.3478585183620453,0.30173200368881226,-0.027852846309542656,0.04770530015230179,0.49160608649253845,0.16279053688049316,0.999751627445221,-32.64548873901367,17.44733428955078,36.0,36.0,-32.64698450865507,17.44513713463149,-32.64637787880167,17.44602822088548,0.00022789050687486512,0.0003322490039845224,3.024022102355957,260.06687336457117,265.28204345703125,260.25848388671875,260.2576246015683,-0.03478585183620453,0.030173201113939285,-0.004642141051590443,0.007950883358716965,-0.8174088001251221,0.5760581493377686,0.999751627445221,0.49160608649253845,0.16279053688049316,1.0,1.0,-0.9991533160209656,0.9993396401405334,0.9841710329055786,0.9995661377906799,0.9539976119995117
74,74,/yh/study/new_data_2/model_dataset_new_2_flight/vi/vi_000074.jpg,-296.3150329589844,25.5032958984375,-32.83153770603164,17.609635458125393,0.0,249.71563720703125,-27.74225425720215,13.991843223571777,0.5961806774139404,-27.772829055786133,9.233684539794922,-0.18369150161743164,0.16483305394649506,0.2468045949935913,-3.34771728515625,0.3556499481201172,3.1697745323181152,-0.34750431776046753,0.3007512092590332,-0.02776787430047989,0.047071218490600586,0.4917059540748596,0.16305476427078247,0.9997544884681702,-32.644004821777344,17.44947052001953,36.0,36.0,-32.646149988294795,17.446360469889466,-32.64527998664883,17.447621793292647,0.00044141025563152424,0.0006418087127483654,3.023979425430298,263.6017111967593,268.8193664550781,263.79400634765625,263.79278329359346,-0.03475043177604675,0.03007512167096138,-0.00462797936052084,0.007845203392207623,-0.8171586990356445,0.5764128565788269,0.9997544884681702,0.4917059540748596,0.16305476427078247,1.0,1.0,-0.9991326332092285,0.9993281960487366,0.9838370084762573,0.9995532035827637,0.9541594982147217
75,75,/yh/study/new_data_2/model_dataset_new_2_flight/vi/vi_000075.jpg,-299.6627502441406,25.858945846557617,-32.83019005027565,17.61055553762102,0.0,253.06614685058594,-27.74225425720215,13.991843223571777,0.5917521715164185,-27.772829055786133,9.233684539794922,-0.183641716837883,0.1644875854253769,0.24653691053390503,-3.360687255859375,0.35703086853027344,3.1828746795654297,-0.3474266529083252,0.3002781867980957,-0.027821656316518784,0.046742357313632965,0.49177226424217224,0.16325931251049042,0.9997549653053284,-32.64388656616211,17.449642181396484,36.0,36.0,-32.6448385763932,17.448263602005397,-32.64445247561208,17.448822703748586,0.0005361688600112761,0.0007790259976684042,3.023942470550537,266.96001783469586,272.1793212890625,267.1512451171875,267.1507093654812,-0.03474266454577446,0.03002781979739666,-0.004636942874640226,0.007790393196046352,-0.817138671875,0.5764409899711609,0.9997549653053284,0.49177226424217224,0.16325931251049042,1.0,1.0,-0.999122142791748,0.9993245005607605,0.9836710095405579,0.9995483160018921,0.9541667103767395
76,76,/yh/study/new_data_2/model_dataset_new_2_flight/vi/vi_000076.jpg,-303.0234375,26.21597671508789,-32.82930615274748,17.61142128418196,0.0,256.4300537109375,-27.74225425720215,13.991843223571777,0.5933489799499512,-27.772829055786133,9.233684539794922,-0.18367041647434235,0.1645183265209198,0.24657879769802094,-3.35089111328125,0.3559856414794922,3.1730027198791504,-0.3474733233451843,0.30030110478401184,-0.027826011180877686,0.04680388793349266,0.49176153540611267,0.16323226690292358,0.9997550845146179,-32.64423751831055,17.449146270751953,36.0,36.0,-32.64391630675207,17.449601729746256,-32.64404657849662,17.449417012116417,0.0005041969777792086,0.0007336917593976981,3.023989677429199,270.3311062172829,275.5524597167969,270.52130126953125,270.521473462106,-0.03474733233451843,0.030030110850930214,-0.004637668840587139,0.007800647988915443,-0.8171972632408142,0.5763581991195679,0.9997550845146179,0.49176153540611267,0.16323226690292358,1.0,1.0,-0.9991263151168823,0.9993259906768799,0.9837652444839478,0.9995500445365906,0.9542203545570374
77,77,/yh/study/new_data_2/model_dataset_new_2_flight/vi/vi_000077.jpg,-306.37432861328125,26.571962356567383,-32.828929082247804,17.61204615833411,0.0,259.7845458984375,-27.74225425720215,13.991843223571777,0.588002622127533,-27.772829055786133,9.233684539794922,-0.18360884487628937,0.1643311232328415,0.24640804529190063,-3.557373046875,0.30675315856933594,3.3767690658569336,-0.34736934304237366,0.3000837564468384,-0.027854198589920998,0.04655785113573074,0.4918055236339569,0.16337081789970398,0.9997548460960388,-32.64371871948242,17.449874877929688,36.0,36.0,-32.64354238151884,17.450150703875813,-32.643613897793834,17.45003883888763,0.00048664512929861165,0.0007062373467736541,3.0238802433013916,273.6921001835312,278.9159240722656,273.882568359375,273.88266405034466,-0.034736935049295425,0.030008375644683838,-0.0046423664316535,0.007759641855955124,-0.8171113729476929,0.5764799118041992,0.9997548460960388,0.4918055236339569,0.16337081789970398,1.0,1.0,-0.9991139769554138,0.999321460723877,0.9835188984870911,0.9995450377464294,0.9541058540344238
78,78,/yh/study/new_data_2/model_dataset_new_2_flight/vi/vi_000078.jpg,-309.93170166015625,26.87871551513672,-32.82843201836237,17.612485151217133,0.0,263.3453063964844,-27.74225425720215,13.991843223571777,0.5915675759315491,-27.772829055786133,9.233684539794922,-0.18365046381950378,0.16440695524215698,0.24648962914943695,-3.25909423828125,0.28103065490722656,3.0776541233062744,-0.3474404215812683,0.3001551032066345,-0.027845531702041626,0.04668644815683365,0.4917842447757721,0.1633017510175705,0.9997552037239075,-32.64421463012695,17.44917869567871,36.0,36.0,-32.643127252664534,17.4507450762344,-32.64356825347934,17.450109809158132,0.0003784127097216076,0.0005503272204559265,3.023963212966919,277.2581560050668,282.4835510253906,277.44775390625,277.4483871528503,-0.03474404290318489,0.03001551143825054,-0.004640921950340271,0.007781074848026037,-0.8171933889389038,0.576363742351532,0.9997552037239075,0.4917842447757721,0.1633017510175705,1.0,1.0,-0.9991215467453003,0.9993240237236023,0.9836857914924622,0.9995479583740234,0.9542052745819092
79,79,/yh/study/new_data_2/model_dataset_new_2_flight/vi/vi_000079.jpg,-313.1907958984375,27.159746170043945,-32.82842874791497,17.612630752914768,0.0,266.60772705078125,-27.74225425720215,13.991843223571777,0.5922581553459167,-27.772829055786133,9.233684539794922,-0.18364131450653076,0.16447196900844574,0.24652618169784546,-3.253021240234375,0.28050804138183594,3.0715723037719727,-0.34742024540901184,0.3002510070800781,-0.027831219136714935,0.04673377424478531,0.4917711019515991,0.163258895277977,0.9997550845146179,-32.64407730102539,17.449373245239258,36.0,36.0,-32.643189840769615,17.450660136378588,-32.643549762424634,17.450138220061003,0.0002900791051724206,0.0004222361512957712,3.0239505767822266,280.524872920446,285.7521057128906,280.7147216796875,280.7152183281892,-0.034742023795843124,0.030025100335478783,-0.004638536833226681,0.007788962684571743,-0.8171705007553101,0.576396107673645,0.9997550845146179,0.4917711019515991,0.163258895277977,1.0,1.0,-0.999122142791748,0.9993239641189575,0.9836872220039368,0.9995483160018921,0.9541763067245483
80,80,/yh/study/new_data_2/model_dataset_new_2_flight/vi/vi_000080.jpg,-316.4438171386719,27.44025421142578,-32.82840263120993,17.61272180129285,0.0,269.8642883300781,-27.74225425720215,13.991843223571777,0.5909024477005005,-27.772829055786133,9.233684539794922,-0.18362689018249512,0.1643759161233902,0.24645136296749115,-5.148223876953125,0.43122291564941406,4.9717631340026855,-0.3473983407020569,0.30012959241867065,-0.027849074453115463,0.046626247465610504,0.49179279804229736,0.16332904994487762,0.9997549653053284,-32.643959045410156,17.44953727722168,36.0,36.0,-32.643259683319464,17.450560456212298,-32.64354331918879,17.450145491966534,0.000220467904046625,0.00032039374454898977,3.0239195823669434,283.7856299031219,289.0146179199219,283.9756774902344,283.9760512653139,-0.03473983332514763,0.030012959614396095,-0.004641512408852577,0.007771041244268417,-0.8171510100364685,0.5764236450195312,0.9997549653053284,0.49179279804229736,0.16332904994487762,1.0,1.0,-0.9991177916526794,0.9993225932121277,0.9836019277572632,0.9995465278625488,0.9541518092155457
81,81,/yh/study/new_data_2/model_dataset_new_2_flight/vi/vi_000081.jpg,-321.592041015625,27.871477127075195,-32.82838001875856,17.612635731438182,0.0,275.01666259765625,-27.74225425720215,13.991843223571777,0.5909412503242493,-27.772829055786133,9.233684539794922,-0.18363341689109802,0.1644105613231659,0.246479332447052,-4.6864013671875,0.39254188537597656,4.508543491363525,-0.34740838408470154,0.30017295479774475,-0.02784237451851368,0.046664830297231674,0.49178415536880493,0.1633014976978302,0.9997550845146179,-32.64403533935547,17.44942855834961,36.0,36.0,-32.64332285128474,17.450465885711083,-32.64361181057495,17.450045183399844,0.0001495502048303732,0.00021714307575552234,3.023935317993164,288.945835303252,294.1773986816406,289.1358947753906,289.13630173989304,-0.034740839153528214,0.030017295852303505,-0.004640395753085613,0.007777472026646137,-0.8171637058258057,0.5764055848121643,0.9997550845146179,0.49178415536880493,0.1633014976978302,1.0,1.0,-0.9991195201873779,0.9993231296539307,0.9836372137069702,0.9995471835136414,0.9541704654693604
82,82,/yh/study/new_data_2/model_dataset_new_2_flight/vi/vi_000082.jpg,-326.2784423828125,28.264019012451172,-32.8284556290424,17.612569145743027,0.0,279.7026062011719,-27.74225425720215,13.991843223571777,0.5942134857177734,-27.772829055786133,9.233684539794922,-0.18366914987564087,0.16455523669719696,0.24660247564315796,-3.38519287109375,0.2985668182373047,3.204327344894409,-0.3474663496017456,0.3003557324409485,-0.027823656797409058,0.04682976007461548,0.49175363779067993,0.16320671141147614,0.9997550845146179,-32.64424514770508,17.44913101196289,36.0,36.0,-32.64346226037012,17.4502623264756,-32.64377977104562,17.4498035063886,7.16252951765754e-05,0.00010453736960023832,3.0239861011505127,293.64323269922437,298.8771667480469,293.8332824707031,293.83373248171785,-0.03474663570523262,0.03003557398915291,-0.004637276288121939,0.007804960012435913,-0.8171988725662231,0.5763559341430664,0.9997550845146179,0.49175363779067993,0.16320671141147614,1.0,1.0,-0.999126672744751,0.9993258714675903,0.9837715029716492,0.9995502829551697,0.9542107582092285
83,83,/yh/study/new_data_2/model_dataset_new_2_flight/vi/vi_000083.jpg,-329.66363525390625,28.562585830688477,-32.82866177932674,17.612468319331224,0.0,283.08782958984375,-27.74225425720215,13.991843223571777,0.5967915058135986,-27.772829055786133,9.233684539794922,-0.18370382487773895,0.1646794080734253,0.24671116471290588,-3.08050537109375,0.2716941833496094,2.898777484893799,-0.3475230932235718,0.3005187511444092,-0.02781333029270172,0.046962521970272064,0.4917301833629608,0.1631413698196411,0.9997548460960388,-32.64439392089844,17.44891929626465,36.0,36.0,-32.643708145750445,17.449908043758203,-32.64398627124917,17.4495070436774,3.3664741891213673e-06,6.122111535137415e-06,3.024017095565796,297.0368774263001,302.27276611328125,297.2270812988281,297.22747585293513,-0.03475230932235718,0.030051875859498978,-0.004635555204004049,0.007827087305486202,-0.8172235488891602,0.5763207077980042,0.9997548460960388,0.4917301833629608,0.1631413698196411,1.0,1.0,-0.9991319179534912,0.9993281960487366,0.9838656187057495,0.9995527267456055,0.9542247653007507
84,84,/yh/study/new_data_2/model_dataset_new_2_flight/vi/vi_000084.jpg,-332.744140625,28.834280014038086,-32.82890512821294,17.612292681480067,0.0,286.16864013671875,-27.74225425720215,13.991843223571777,0.5960685014724731,-27.772829055786133,9.233684539794922,-0.18368524312973022,0.1646321564912796,0.24666579067707062,-3.379119873046875,0.2980308532714844,3.1982178688049316,-0.347494900226593,0.3004596531391144,-0.02781069278717041,0.04690738767385483,0.49174007773399353,0.1631670892238617,0.9997549653053284,-32.64420700073242,17.449188232421875,36.0,36.0,-32.64398290477498,17.449513165788936,-32.64407378995813,17.449381384613968,-1.893897955593407e-05,-2.6220221954177412e-05,3.0239970684051514,300.12510971724,305.3628234863281,300.3158264160156,300.31594368464494,-0.03474948927760124,0.030045965686440468,-0.004635115619748831,0.007817897945642471,-0.8171921968460083,0.5763654112815857,0.9997549653053284,0.49174007773399353,0.1631670892238617,1.0,1.0,-0.9991295337677002,0.9993273615837097,0.9838137030601501,0.9995516538619995,0.95420902967453
85,85,/yh/study/new_data_2/model_dataset_new_2_flight/vi/vi_000085.jpg,-336.1232604980469,29.13231086730957,-32.828973341747286,17.612120896851003,0.0,289.5483703613281,-27.74225425720215,13.991843223571777,0.5996870398521423,-27.772829055786133,9.233684539794922,-0.18375737965106964,0.16484862565994263,0.24686402082443237,-3.50244140625,0.32993125915527344,3.3227875232696533,-0.34760430455207825,0.300750195980072,-0.02781818062067032,0.04712650924921036,0.4916997253894806,0.16305992007255554,0.9997544884681702,-32.64468002319336,17.448511123657227,36.0,36.0,-32.644092728937686,17.449355164392014,-32.644330914162445,17.449012852118095,-7.739547740703793e-05,-0.00011023205234869622,3.024054527282715,303.5129970834912,308.7524719238281,303.7033996582031,303.70373747106254,-0.034760430455207825,0.030075019225478172,-0.0046363635919988155,0.007854418829083443,-0.8172716498374939,0.576252818107605,0.9997544884681702,0.4916997253894806,0.16305992007255554,1.0,1.0,-0.999138593673706,0.9993314146995544,0.9839792847633362,0.9995562434196472,0.9542399644851685
86,86,/yh/study/new_data_2/model_dataset_new_2_flight/vi/vi_000086.jpg,-339.6257019042969,29.462242126464844,-32.82930618310865,17.611963167721736,0.0,293.0517883300781,-27.74225425720215,13.991843223571777,0.6056811213493347,-27.772829055786133,9.233684539794922,-0.1839093267917633,0.1652361899614334,0.2472359985113144,-3.21917724609375,0.3032493591308594,3.0384039878845215,-0.3478364646434784,0.3012930750846863,-0.02787364460527897,0.047495462000370026,0.49164479970932007,0.1629294604063034,0.999752938747406,-32.64554977416992,17.4472599029541,36.0,36.0,-32.64440830963985,17.448902620065745,-32.64487124620533,17.44823639365425,-0.00019101146837690247,-0.0002737403590945655,3.0241031646728516,307.0251741126645,312.26690673828125,307.2152099609375,307.2158308506902,-0.03478364646434784,0.030129307880997658,-0.0046456074342131615,0.007915910333395004,-0.8174180388450623,0.5760450959205627,0.999752938747406,0.49164479970932007,0.1629294604063034,1.0,1.0,-0.9991517663002014,0.9993392825126648,0.9841996431350708,0.9995641708374023,0.9541856646537781
87,87,/yh/study/new_data_2/model_dataset_new_2_flight/vi/vi_000087.jpg,-342.8448791503906,29.765491485595703,-32.83000503229393,17.611564081107463,0.0,296.272216796875,-27.74225425720215,13.991843223571777,0.6008817553520203,-27.772829055786133,9.233684539794922,-0.18377049267292023,0.16496510803699493,0.24695158004760742,-3.204925537109375,0.30190277099609375,3.024256944656372,-0.34762534499168396,0.3009233772754669,-0.027801714837551117,0.04721508175134659,0.49168139696121216,0.16300244629383087,0.9997541308403015,-32.64453125,17.448720932006836,36.0,36.0,-32.6450622576737,17.447962653295154,-32.64484690024276,17.44827018360662,-0.00013815747119113046,-0.00019826487563496734,3.0240414142608643,310.2530259736606,315.4971618652344,310.4447937011719,310.44447804493956,-0.034762535244226456,0.030092338100075722,-0.004633619450032711,0.007869180291891098,-0.8172468543052673,0.5762878656387329,0.9997541308403015,0.49168139696121216,0.16300244629383087,1.0,1.0,-0.9991406202316284,0.9993325471878052,0.9839861392974854,0.9995574951171875,0.9542063474655151
88,88,/yh/study/new_data_2/model_dataset_new_2_flight/vi/vi_000088.jpg,-346.0498046875,30.067394256591797,-32.829837682141616,17.61133329088304,0.0,299.4786682128906,-27.74225425720215,13.991843223571777,0.6023383140563965,-27.772829055786133,9.233684539794922,-0.18381452560424805,0.16502223908901215,0.24702250957489014,-3.534942626953125,0.37035179138183594,3.357412576675415,-0.34769099950790405,0.3009932339191437,-0.027832038700580597,0.04728974774479866,0.49167323112487793,0.16299542784690857,0.9997538924217224,-32.64492416381836,17.448158264160156,36.0,36.0,-32.64498505771395,17.448071918730985,-32.64496036136103,17.448106937301752,-0.00013209638027713146,-0.00018967045921418476,3.0240752696990967,313.4675440705453,318.7132263183594,313.6588134765625,313.65880006710825,-0.034769099205732346,0.030099323019385338,-0.004638673271983862,0.00788162462413311,-0.8173128366470337,0.5761942863464355,0.9997538924217224,0.49167323112487793,0.16299542784690857,1.0,1.0,-0.9991443753242493,0.9993348121643066,0.9840719103813171,0.9995595812797546,0.9542213082313538
89,89,/yh/study/new_data_2/model_dataset_new_2_flight/vi/vi_000089.jpg,-349.5847473144531,30.437746047973633,-32.82999586524596,17.61122609266653,0.0,303.0158386230469,-27.74225425720215,13.991843223571777,0.6020233631134033,-27.772829055786133,9.233684539794922,-0.1838163584470749,0.16507244110107422,0.24705740809440613,-3.224639892578125,0.33783721923828125,3.045727491378784,-0.3476877212524414,0.3010686933994293,-0.027833320200443268,0.047325119376182556,0.49166446924209595,0.16297107934951782,0.9997537732124329,-32.644920349121094,17.44816017150879,36.0,36.0,-32.645092457741306,17.447917266842538,-32.64502265673441,17.448015780155014,-0.00011496550067050668,-0.0001654928753819373,3.0240676403045654,317.01434065324696,322.2624206542969,317.2059020996094,317.2058041060113,-0.03476877138018608,0.03010687045753002,-0.004638887010514736,0.007887519896030426,-0.8173125982284546,0.5761946439743042,0.9997537732124329,0.49166446924209595,0.16297107934951782,1.0,1.0,-0.9991447925567627,0.9993348717689514,0.9840767979621887,0.9995599985122681,0.9541999101638794
90,90,/yh/study/new_data_2/model_dataset_new_2_flight/vi/vi_000090.jpg,-352.80938720703125,30.775583267211914,-32.830061077119616,17.61118343978307,0.0,306.24285888671875,-27.74225425720215,13.991843223571777,0.599696934223175,-27.772829055786133,9.233684539794922,-0.18376319110393524,0.16494537889957428,0.2469329535961151,-3.22821044921875,0.3382148742675781,3.0493738651275635,-0.3476094901561737,0.3008917570114136,-0.02780921757221222,0.047204744070768356,0.49168452620506287,0.16301752626895905,0.9997541308403015,-32.644561767578125,17.448673248291016,36.0,36.0,-32.64513762223508,17.447850287279632,-32.64490407649618,17.44818405038317,-5.764764647420603e-05,-8.357922114684896e-05,3.024042844772339,320.2500126047909,325.5001525878906,320.44207763671875,320.4417510689383,-0.03476094827055931,0.030089175328612328,-0.004634869750589132,0.00786745734512806,-0.8172523379325867,0.5762801170349121,0.9997541308403015,0.49168452620506287,0.16301752626895905,1.0,1.0,-0.9991400837898254,0.9993322491645813,0.9839911460876465,0.9995571970939636,0.9542022347450256
91,91,/yh/study/new_data_2/model_dataset_new_2_flight/vi/vi_000091.jpg,-356.03759765625,31.113798141479492,-32.8298872897332,17.611227869871616,0.0,309.4737548828125,-27.74225425720215,13.991843223571777,0.5990620255470276,-27.772829055786133,9.233684539794922,-0.18374261260032654,0.16486437618732452,0.24686354398727417,-3.244140625,0.3237628936767578,3.0645203590393066,-0.34757906198501587,0.300778865814209,-0.027807630598545074,0.047128476202487946,0.49169760942459106,0.16305388510227203,0.9997544884681702,-32.64445114135742,17.448833465576172,36.0,36.0,-32.644961724142654,17.44810047116202,-32.644754650304826,17.448397747080513,-6.8266462696508915e-06,-1.062041730751766e-05,3.0240368843078613,323.48963421461576,328.7415466308594,323.6817321777344,323.6814391889148,-0.034757908433675766,0.030077887699007988,-0.0046346052549779415,0.007854746654629707,-0.817233681678772,0.5763064622879028,0.9997544884681702,0.49169760942459106,0.16305388510227203,1.0,1.0,-0.999137818813324,0.9993311762809753,0.9839529395103455,0.9995559453964233,0.9542151093482971
92,92,/yh/study/new_data_2/model_dataset_new_2_flight/vi/vi_000092.jpg,-359.28173828125,31.43756103515625,-32.829715792498924,17.61136287997623,0.0,312.72076416015625,-27.74225425720215,13.991843223571777,0.6003354787826538,-27.772829055786133,9.233684539794922,-0.1837790459394455,0.16493460536003113,0.246937558054924,-3.55157470703125,0.3544483184814453,3.3731236457824707,-0.34763485193252563,0.30087214708328247,-0.027823541313409805,0.04720400646328926,0.49168649315834045,0.16302834451198578,0.9997542500495911,-32.64473342895508,17.44843292236328,36.0,36.0,-32.644761476951096,17.448387126663206,-32.644750101702364,17.448405699736263,-4.034881148289847e-06,-6.062129503490323e-06,3.024061679840088,326.7446812764094,331.9981689453125,326.9364318847656,326.93641356386786,-0.034763485193252563,0.030087215825915337,-0.004637257196009159,0.00786733441054821,-0.8172807693481445,0.576239824295044,0.9997542500495911,0.49168649315834045,0.16302834451198578,1.0,1.0,-0.9991413354873657,0.9993330836296082,0.9840200543403625,0.9995578527450562,0.9542261362075806
93,93,/yh/study/new_data_2/model_dataset_new_2_flight/vi/vi_000093.jpg,-362.83331298828125,31.792009353637695,-32.82974867802372,17.611439453277377,0.0,316.2757873535156,-27.74225425720215,13.991843223571777,0.6006309390068054,-27.772829055786133,9.233684539794922,-0.1837848722934723,0.16494810581207275,0.2469509243965149,-3.243133544921875,0.32366371154785156,3.063462734222412,-0.3476439118385315,0.30089259147644043,-0.027824267745018005,0.047212615609169006,0.49168360233306885,0.16302001476287842,0.9997542500495911,-32.644744873046875,17.448415756225586,36.0,36.0,-32.644754136583515,17.44839963760676,-32.64475037962942,17.448406174733268,-3.1128324402392225e-06,-4.457758274359755e-06,3.024064540863037,330.30810014314403,335.5635070800781,330.4999694824219,330.49996343376716,-0.03476439043879509,0.030089259147644043,-0.004637378267943859,0.007868769578635693,-0.8172826170921326,0.5762370228767395,0.9997542500495911,0.49168360233306885,0.16302001476287842,1.0,1.0,-0.9991419315338135,0.9993334412574768,0.9840250611305237,0.99955815076828,0.9542317390441895
94,94,/yh/study/new_data_2/model_dataset_new_2_flight/vi/vi_000094.jpg,-366.0764465332031,32.11567306518555,-32.82975497835383,17.611453143519874,0.0,319.5223388671875,-27.74225425720215,13.991843223571777,0.600689172744751,-27.772829055786133,9.233684539794922,-0.18377435207366943,0.1649424284696579,0.2469393014907837,-3.536346435546875,0.3346824645996094,3.3568661212921143,-0.34762680530548096,0.3008866012096405,-0.02781863883137703,0.04720362648367882,0.4916847050189972,0.16301997005939484,0.9997542500495911,-32.644649505615234,17.448549270629883,36.0,36.0,-32.64475349246186,17.448401716974995,-32.64471131917275,17.44846155937957,7.237527396516284e-06,1.0229035997032608e-05,3.024054527282715,333.562182850198,338.81927490234375,333.75421142578125,333.754174717254,-0.034762680530548096,0.03008866123855114,-0.004636439960449934,0.007867271080613136,-0.8172668814659119,0.576259434223175,0.9997542500495911,0.4916847050189972,0.16301997005939484,1.0,1.0,-0.9991411566734314,0.9993329644203186,0.9840086698532104,0.9995577335357666,0.9542178511619568
95,95,/yh/study/new_data_2/model_dataset_new_2_flight/vi/vi_000095.jpg,-369.61279296875,32.450355529785156,-32.829705423982986,17.611502803306376,0.0,323.0625,-27.74225425720215,13.991843223571777,0.5953382253646851,-27.772829055786133,9.233684539794922,-0.1836894005537033,0.16467761993408203,0.2466992437839508,-3.227783203125,0.3054771423339844,3.0473482608795166,-0.34750038385391235,0.300527960062027,-0.027805037796497345,0.04693980515003204,0.4917323589324951,0.16314443945884705,0.9997548460960388,-32.64410400390625,17.449331283569336,36.0,36.0,-32.64470408164535,17.448471788415567,-32.644460711903896,17.448820368440657,6.69664328427612e-05,9.577912630347243e-05,3.023996591567993,337.10983315000516,342.3684997558594,337.30242919921875,337.3020945697748,-0.034750040620565414,0.030052796006202698,-0.00463417312130332,0.00782330147922039,-0.8171753287315369,0.5763891935348511,0.9997548460960388,0.4917323589324951,0.16314443945884705,1.0,1.0,-0.99913090467453,0.9993281960487366,0.9838231205940247,0.9995523691177368,0.9542026519775391
96,96,/yh/study/new_data_2/model_dataset_new_2_flight/vi/vi_000096.jpg,-372.840576171875,32.75583267211914,-32.82936536037806,17.61160386838067,0.0,326.2939758300781,-27.74225425720215,13.991843223571777,0.602879524230957,-27.772829055786133,9.233684539794922,-0.18387900292873383,0.16516929864883423,0.24716873466968536,-3.23388671875,0.3060569763183594,3.053260087966919,-0.34778591990470886,0.30119988322257996,-0.027866821736097336,0.047428980469703674,0.49165287613868713,0.16295035183429718,0.9997532963752747,-32.64535903930664,17.447532653808594,36.0,36.0,-32.644393745471056,17.448916147566962,-32.64478523359982,17.44835505273485,-2.9114358822399588e-05,-4.1927311537155875e-05,3.0240981578826904,340.34830856574,345.60809326171875,340.5394592285156,340.5400050554804,-0.03477859124541283,0.030119989067316055,-0.004644470289349556,0.007904830388724804,-0.8173860311508179,0.5760905742645264,0.9997532963752747,0.49165287613868713,0.16295035183429718,1.0,1.0,-0.9991496205329895,0.9993378520011902,0.9841665625572205,0.9995627999305725,0.9542019963264465
97,97,/yh/study/new_data_2/model_dataset_new_2_flight/vi/vi_000097.jpg,-376.074462890625,33.0618896484375,-32.82988759342345,17.611617516872418,0.0,329.5317687988281,-27.74225425720215,13.991843223571777,0.6021896600723267,-27.772829055786133,9.233684539794922,-0.18381823599338531,0.16511529684066772,0.24708743393421173,-3.21051025390625,0.28054046630859375,3.0288920402526855,-0.3476935029029846,0.30113524198532104,-0.02782023698091507,0.04735270142555237,0.4916582405567169,0.16294336318969727,0.9997535347938538,-32.64482879638672,17.448287963867188,36.0,36.0,-32.64481434795864,17.448313125423315,-32.64482020771643,17.448302920809795,-3.055248714832181e-05,-4.4431774057417645e-05,3.0240540504455566,343.5921264812331,348.85382080078125,343.78436279296875,343.78438528212916,-0.03476935252547264,0.030113523826003075,-0.004636706318706274,0.007892116904258728,-0.8172973990440369,0.5762162208557129,0.9997535347938538,0.4916582405567169,0.16294336318969727,1.0,1.0,-0.9991453289985657,0.9993350505828857,0.9840664863586426,0.9995603561401367,0.9541741013526917
98,98,/yh/study/new_data_2/model_dataset_new_2_flight/vi/vi_000098.jpg,-379.28497314453125,33.342430114746094,-32.82986138070769,17.611512076825928,0.0,332.74603271484375,-27.74225425720215,13.991843223571777,0.6074398756027222,-27.772829055786133,9.233684539794922,-0.18398548662662506,0.1655026227235794,0.24747075140476227,-3.52227783203125,0.3077812194824219,3.341322898864746,-0.34795254468917847,0.3016844093799591,-0.027899477630853653,0.047723639756441116,0.4916155934333801,0.16283883154392242,0.9997513890266418,-32.645816802978516,17.446866989135742,36.0,36.0,-32.644850760203575,17.448258489035737,-32.64524255207494,17.447694147203293,-0.00012670782470163963,-0.0001829351054421131,3.0240683555603027,346.81206185713785,352.07489013671875,347.0034484863281,347.0039559669149,-0.03479525446891785,0.030168442055583,-0.004649912938475609,0.007953939959406853,-0.8174635767936707,0.5759804248809814,0.9997513890266418,0.4916155934333801,0.16283883154392242,1.0,1.0,-0.9991567730903625,0.9993428587913513,0.9842590093612671,0.9995681047439575,0.9540318250656128
99,99,/yh/study/new_data_2/model_dataset_new_2_flight/vi/vi_000099.jpg,-382.8072509765625,33.650211334228516,-32.83045743935285,17.611280557346344,0.0,336.2725830078125,-27.74225425720215,13.991843223571777,0.6069971323013306,-27.772829055786133,9.233684539794922,-0.18393076956272125,0.1654355823993683,0.24738523364067078,-3.2039794921875,0.27996826171875,3.022219657897949,-0.3478694260120392,0.30159473419189453,-0.02785753458738327,0.04764556884765625,0.4916205406188965,0.16283997893333435,0.9997519850730896,-32.64541244506836,17.44744300842285,36.0,36.0,-32.64536925989964,17.44751121209785,-32.645386774235966,17.447483551163828,-0.00013100627253788814,-0.00018972377729189975,3.024049997329712,350.34412127942477,355.6087951660156,350.5364990234375,350.5365309482888,-0.03478694334626198,0.030159473419189453,-0.004642922431230545,0.0079409284517169,-0.8173959255218506,0.5760762691497803,0.9997519850730896,0.4916205406188965,0.16283997893333435,1.0,1.0,-0.9991536140441895,0.9993404150009155,0.9841902256011963,0.9995658993721008,0.9540495276451111
100,100,/yh/study/new_data_2/model_dataset_new_2_flight/vi/vi_000100.jpg,-386.01123046875,33.930179595947266,-32.83054613855795,17.61100418829238,0.0,339.4806213378906,-27.74225425720215,13.991843223571777,0.6023708581924438,-27.772829055786133,9.233684539794922,-0.1838517189025879,0.16521815955638885,0.24718108773231506,-3.17919921875,0.2947807312011719,2.9981484413146973,-0.3477456867694855,0.30128178000450134,-0.027829453349113464,0.04744795709848404,0.4916454553604126,0.1629093736410141,0.9997530579566956,-32.644996643066406,17.44804573059082,36.0,36.0,-32.645517780508506,17.447293827386535,-32.6453064260851,17.447598772023703,-7.913471161263749e-05,-0.00011488288174259284,3.0240554809570312,353.5575077267184,358.8233642578125,353.75042724609375,353.75012614152325,-0.03477456793189049,0.030128179118037224,-0.004638242535293102,0.007907993160188198,-0.81732577085495,0.5761759281158447,0.9997530579566956,0.4916454553604126,0.1629093736410141,1.0,1.0,-0.9991480112075806,0.9993366599082947,0.9841078519821167,0.9995620846748352,0.9541419744491577
101,101,/yh/study/new_data_2/model_dataset_new_2_flight/vi/vi_000101.jpg,-389.1904296875,34.22496032714844,-32.83038293183863,17.610907904214194,0.0,342.664306640625,-27.74225425720215,13.991843223571777,0.6018312573432922,-27.772829055786133,9.233684539794922,-0.183839350938797,0.16514484584331512,0.2471228986978531,-3.177520751953125,0.2946205139160156,2.9964799880981445,-0.3477269411087036,0.30117517709732056,-0.027832191437482834,0.04738520085811615,0.49165523052215576,0.1629413217306137,0.9997534155845642,-32.64495086669922,17.448118209838867,36.0,36.0,-32.64538556079671,17.44748388914196,-32.64520926465502,17.447741146583695,-3.586731314842908e-05,-5.174559392230755e-05,3.0240654945373535,356.7471228497984,362.0140380859375,356.9399719238281,356.9397278110239,-0.03477269411087036,0.030117517337203026,-0.004638698883354664,0.007897533476352692,-0.8173174262046814,0.5761878490447998,0.9997534155845642,0.49165523052215576,0.1629413217306137,1.0,1.0,-0.9991469383239746,0.9993361830711365,0.984096109867096,0.9995613098144531,0.9541774988174438
102,102,/yh/study/new_data_2/model_dataset_new_2_flight/vi/vi_000102.jpg,-392.3679504394531,34.51958084106445,-32.83027195079412,17.610979219336794,0.0,345.8464660644531,-27.74225425720215,13.991843223571777,0.6014624834060669,-27.772829055786133,9.233684539794922,-0.18380726873874664,0.16506879031658173,0.24704821407794952,-3.48809814453125,0.3234214782714844,3.3080830574035645,-0.34767669439315796,0.30106648802757263,-0.027821741998195648,0.04731707274913788,0.49166595935821533,0.16296736896038055,0.9997537732124329,-32.64478302001953,17.448354721069336,36.0,36.0,-32.645245131968174,17.447689400989773,-32.64505771614163,17.447959230655492,1.012912879163303e-05,1.4477226113014235e-05,3.0240566730499268,359.93505394976,365.2030944824219,360.1280212402344,360.1277548504642,-0.034767668694257736,0.030106648802757263,-0.004636957310140133,0.00788617879152298,-0.8172895908355713,0.5762271285057068,0.9997537732124329,0.49166595935821533,0.16296736896038055,1.0,1.0,-0.999144434928894,0.9993346929550171,0.9840574264526367,0.999559760093689,0.9541862607002258
103,103,/yh/study/new_data_2/model_dataset_new_2_flight/vi/vi_000103.jpg,-395.8560485839844,34.84300231933594,-32.830087078109614,17.61112318997783,0.0,349.33984375,-27.74225425720215,13.991843223571777,0.6044068336486816,-27.772829055786133,9.233684539794922,-0.18391254544258118,0.16531412303447723,0.2472904920578003,-3.199737548828125,0.276580810546875,3.0178768634796143,-0.3478400409221649,0.30141186714172363,-0.027866028249263763,0.0475526824593544,0.4916355311870575,0.16289310157299042,0.9997524619102478,-32.645450592041016,17.447399139404297,36.0,36.0,-32.64504758701284,17.447973707881605,-32.64521103121868,17.447740683770466,-2.9984089302955584e-05,-4.271260783242593e-05,3.024078607559204,363.4347071835513,368.703857421875,363.6269226074219,363.627154710909,-0.03478400409221649,0.030141187831759453,-0.004644338041543961,0.007925447076559067,-0.8174015879631042,0.5760685205459595,0.9997524619102478,0.4916355311870575,0.16289310157299042,1.0,1.0,-0.9991523027420044,0.9993396401405334,0.9841914772987366,0.9995648264884949,0.9541259407997131
104,104,/yh/study/new_data_2/model_dataset_new_2_flight/vi/vi_000104.jpg,-399.0557861328125,35.11958312988281,-32.83034974535176,17.611143683210937,0.0,352.5442199707031,-27.74225425720215,13.991843223571777,0.6044321656227112,-27.772829055786133,9.233684539794922,-0.18390145897865295,0.16532906889915466,0.24729223549365997,-3.517486572265625,0.3040504455566406,3.336470127105713,-0.34782153367996216,0.30143800377845764,-0.027855243533849716,0.04755548760294914,0.4916326403617859,0.16287948191165924,0.9997524619102478,-32.64530563354492,17.447601318359375,36.0,36.0,-32.64524101530798,17.447697971162633,-32.64526722211852,17.44765877229521,-3.641588357368476e-05,-5.233297161320497e-05,3.0240650177001953,366.6437176729527,371.91412353515625,366.83642578125,366.83642850581833,-0.034782152622938156,0.030143801122903824,-0.004642540588974953,0.007925914600491524,-0.8173774480819702,0.5761024951934814,0.9997524619102478,0.4916326403617859,0.16287948191165924,1.0,1.0,-0.9991518259048462,0.9993392825126648,0.9841715097427368,0.9995645880699158,0.9541086554527283
105,105,/yh/study/new_data_2/model_dataset_new_2_flight/vi/vi_000105.jpg,-402.5732727050781,35.42363357543945,-32.83039529768531,17.611075978658015,0.0,356.06695556640625,-27.74225425720215,13.991843223571777,0.606621265411377,-27.772829055786133,9.233684539794922,-0.18398088216781616,0.16552859544754028,0.2474846988916397,-3.1990966796875,0.27652740478515625,3.017158269882202,-0.3479457199573517,0.3017251491546631,-0.02789081633090973,0.04774053767323494,0.49161261320114136,0.16282443702220917,0.9997512698173523,-32.6457405090332,17.44697380065918,36.0,36.0,-32.64530363800209,17.447606439323597,-32.64548081702901,17.447349864053162,-7.989996373408248e-05,-0.0001153028378595555,3.0240561962127686,370.1716934094731,375.4432373046875,370.3640441894531,370.3643044182849,-0.03479457274079323,0.03017251566052437,-0.004648469388484955,0.00795675627887249,-0.8174508810043335,0.5759983658790588,0.9997512698173523,0.49161261320114136,0.16282443702220917,1.0,1.0,-0.9991567134857178,0.9993427395820618,0.9842466115951538,0.9995681643486023,0.9540095925331116
106,106,/yh/study/new_data_2/model_dataset_new_2_flight/vi/vi_000106.jpg,-405.7723693847656,35.70016098022461,-32.83069175576134,17.610961251324323,0.0,359.2709655761719,-27.74225425720215,13.991843223571777,0.6057257056236267,-27.772829055786133,9.233684539794922,-0.1839340627193451,0.16545748710632324,0.2474023401737213,-5.18963623046875,0.48155975341796875,5.01567268371582,-0.3478735089302063,0.3016272485256195,-0.02785889245569706,0.04766368865966797,0.49161818623542786,0.16282996535301208,0.9997517466545105,-32.64543533325195,17.447410583496094,36.0,36.0,-32.64556071699275,17.447234561215303,-32.645509865900316,17.447305949460816,-6.741985805706346e-05,-9.778241095368819e-05,3.0240442752838135,373.3801200647514,378.65289306640625,373.5730895996094,373.57304508112617,-0.03478735312819481,0.03016272559762001,-0.004643148742616177,0.007943948730826378,-0.8173997402191162,0.5760709047317505,0.9997517466545105,0.49161818623542786,0.16282996535301208,1.0,1.0,-0.9991539120674133,0.9993405938148499,0.9841905236244202,0.9995662569999695,0.9540328979492188
107,107,/yh/study/new_data_2/model_dataset_new_2_flight/vi/vi_000107.jpg,-410.9620056152344,36.18172073364258,-32.830672947796984,17.61084781092156,0.0,364.4695129394531,-27.74225425720215,13.991843223571777,0.6045994758605957,-27.772829055786133,9.233684539794922,-0.18391209840774536,0.16536784172058105,0.24732606112957,-4.76751708984375,0.44239044189453125,4.591968536376953,-0.3478395938873291,0.30149513483047485,-0.027855075895786285,0.04758848994970322,0.491628497838974,0.16286450624465942,0.9997522234916687,-32.64531707763672,17.447580337524414,36.0,36.0,-32.64557728575837,17.44720816704986,-32.645471754792695,17.447359105880395,-4.151996995622899e-05,-6.0738318770356364e-05,3.0240590572357178,378.58708650185633,383.8616638183594,378.7802734375,378.7801157634578,-0.03478395938873291,0.030149513855576515,-0.004642512649297714,0.007931414991617203,-0.817379891872406,0.5760989785194397,0.9997522234916687,0.491628497838974,0.16286450624465942,1.0,1.0,-0.9991524815559387,0.9993396997451782,0.9841752052307129,0.999565064907074,0.9540885090827942
108,108,/yh/study/new_data_2/model_dataset_new_2_flight/vi/vi_000108.jpg,-415.7295227050781,36.62411117553711,-32.83061118637135,17.61081397567266,0.0,369.24554443359375,-27.74225425720215,13.991843223571777,0.606548011302948,-27.772829055786133,9.233684539794922,-0.18400055170059204,0.16554982960224152,0.2475135326385498,-3.11614990234375,0.316375732421875,2.936025857925415,-0.3479793071746826,0.3017544150352478,-0.027899757027626038,0.047764383256435394,0.4916117489337921,0.16282226145267487,0.9997510313987732,-32.64582824707031,17.44684600830078,36.0,36.0,-32.64551327476265,17.447298367561626,-32.64564101609362,17.44711490707112,-7.287082661488328e-05,-0.00010576402420510005,3.024060010910034,383.37068473296284,388.6468200683594,383.5633850097656,383.56357699315066,-0.03479793295264244,0.03017544187605381,-0.00464995950460434,0.007960731163620949,-0.8174657225608826,0.5759772062301636,0.9997510313987732,0.4916117489337921,0.16282226145267487,1.0,1.0,-0.9991579055786133,0.9993436932563782,0.9842604398727417,0.9995689392089844,0.9540050625801086
109,109,/yh/study/new_data_2/model_dataset_new_2_flight/vi/vi_000109.jpg,-418.8456726074219,36.940486907958984,-32.830871829541074,17.610747193006578,0.0,372.3680725097656,-27.74225425720215,13.991843223571777,0.6072995662689209,-27.772829055786133,9.233684539794922,-0.18400223553180695,0.16559350490570068,0.24754399061203003,-3.42608642578125,0.34784698486328125,3.2472028732299805,-0.3479843735694885,0.30182084441185,-0.027889274060726166,0.0477970652282238,0.49160683155059814,0.16279950737953186,0.9997507929801941,-32.64578628540039,17.446903228759766,36.0,36.0,-32.645713886920234,17.447009143046916,-32.645743249114915,17.44696618805792,-8.007702956820724e-05,-0.00011630623237315305,3.0240447521209717,386.49846734112,391.776123046875,386.6915588378906,386.69158613346957,-0.03479843959212303,0.030182084068655968,-0.004648212343454361,0.0079661775380373,-0.8174591064453125,0.5759867429733276,0.9997507929801941,0.49160683155059814,0.16279950737953186,1.0,1.0,-0.9991581439971924,0.9993438720703125,0.9842522144317627,0.9995692372322083,0.953971266746521
110,110,/yh/study/new_data_2/model_dataset_new_2_flight/vi/vi_000110.jpg,-422.2717590332031,37.288333892822266,-32.83097668437244,17.610640699196544,0.0,375.8013610839844,-27.74225425720215,13.991843223571777,0.6084863543510437,-27.772829055786133,9.233684539794922,-0.18404635787010193,0.16570426523685455,0.2476508915424347,-3.43536376953125,0.348785400390625,3.2564680576324463,-0.3480552136898041,0.30198347568511963,-0.02790861390531063,0.04789622873067856,0.4915980100631714,0.1627674698829651,0.9997500777244568,-32.646018981933594,17.446565628051758,36.0,36.0,-32.64582332614448,17.446849881825546,-32.645902677028054,17.446734598816487,-9.955168321137544e-05,-0.00014459951117863542,3.0240278244018555,389.9376034263582,395.2167053222656,390.1306457519531,390.1307434743212,-0.03480552136898041,0.030198348686099052,-0.004651435650885105,0.007982704788446426,-0.8174983859062195,0.5759309530258179,0.9997500777244568,0.4915980100631714,0.1627674698829651,1.0,1.0,-0.9991604685783386,0.999345600605011,0.9842789769172668,0.9995710849761963,0.9538936018943787
