sequence_index,frame_id,image_path,gt_x,gt_y,predicted_current_x,predicted_current_y,candidate_capture,candidate_nearest_gt_m,raw_hardms_x,raw_hardms_y,hardms_x,hardms_y,hardms_support,model_next_step_dx,model_next_step_dy,model_next_step_m,model_velocity_x,model_velocity_y,model_acceleration_x,model_acceleration_y,correction_gate,measurement_x,measurement_y,measurement_variance_x,measurement_variance_y,kf_predict_x,kf_predict_y,final_x,final_y,final_vx,final_vy,final_speed,error_predicted_current_m,error_raw_hardms_m,error_hardms_m,error_measurement_m,error_final_m,state_norm,state_00,state_01,state_02,state_03,state_04,state_05,state_06,state_07,state_08,state_09,state_10,state_11,state_12,state_13,state_14,state_15
0,0,/yh/study/new_data_2/model_dataset_new_2_flight/vi/vi_000000.jpg,-37.63298034667969,0.8348962068557739,-37.632978691184114,0.8348961808190729,1.0,1.1097068786621094,-32.53472900390625,4.505537986755371,-37.296630859375,-0.22260963916778564,0.8773176074028015,-0.5283072590827942,-1.6698391437530518,1.7514197826385498,-0.5897234007716179,-1.521153599023819,0.12283234298229218,-0.2973712831735611,0.43262574076652527,-37.561859130859375,0.31913602352142334,0.49375250935554504,0.45332738757133484,-37.632978691184114,0.8348961808190729,-37.564395687428906,0.33607456291531235,0.04623573286867779,-0.33628423678905206,0.3394478323788487,1.6557003061335768e-06,6.282179355621338,1.1097068786621094,0.5206407308578491,0.5035145359848218,2.5575854778289795,-0.05897234007716179,-0.1521153599023819,0.020472057163715363,-0.04956188052892685,-0.13623662292957306,0.27827268838882446,0.43262574076652527,0.019750099629163742,0.018133094534277916,0.9728526473045349,-0.9999997019767761,0.9999979138374329,0.5475541353225708,0.9999998807907104,-0.9907714128494263,0.9999954104423523
1,1,/yh/study/new_data_2/model_dataset_new_2_flight/vi/vi_000001.jpg,-47.69226837158203,1.7922438383102417,-38.09270291670938,-1.3337646776952872,1.0,2.1660690307617188,-32.53472900390625,4.505537986755371,-37.296630859375,-0.22260963916778564,0.8767557144165039,-0.5366197228431702,-2.7085719108581543,2.7612175941467285,-0.6349948793649673,-2.599184513092041,0.19675026834011078,-0.21877487003803253,0.30458980798721313,-38.209991455078125,-1.24459969997406,8.666219711303711,5.992690086364746,-37.518159954560225,-0.00020967387373971302,-37.77813823084234,-0.5730259969949938,-0.15657865105018987,-0.787619752257517,0.8030328437311202,10.095721181001558,15.398472785949707,10.589094161987305,9.956706047058105,10.192373513629105,2.788119316101074,-0.06349948793649673,-0.2599184513092041,0.03279171139001846,-0.03646247833967209,-0.6663690805435181,-0.7456220984458923,0.30458980798721313,0.34664878249168396,0.2397076040506363,-0.9948196411132812,-0.999979555606842,0.9991095066070557,0.6709353923797607,0.9999890327453613,0.995878279209137,0.9997318983078003
2,2,/yh/study/new_data_2/model_dataset_new_2_flight/vi/vi_000002.jpg,-50.9120979309082,2.1374623775482178,-38.31475797603725,-3.281597945106051,1.0,2.342602252960205,-32.565303802490234,-0.2526208460330963,-37.296630859375,-0.22260963916778564,0.8383288383483887,-0.3031357526779175,-2.6381430625915527,2.6555018424987793,-0.40288615971803665,-2.5574642419815063,0.19950080662965775,-0.1613578051328659,0.3057273328304291,-38.34178924560547,-1.1172583103179932,25.0,25.0,-37.93471688189253,-1.3606457492525108,-38.0655725258667,-1.2894986522554952,-0.21951628077569724,-0.7528641093890246,0.78421410643505,13.713467421449396,18.501819610595703,13.818498611450195,12.984831809997559,13.295761613468034,3.0267672538757324,-0.040288615971803665,-0.25574642419815063,0.03325013443827629,-0.026892967522144318,-0.7596877217292786,-0.6502880454063416,0.3057273328304291,1.0,1.0,-0.9999366998672485,-0.9997671842575073,-0.06246379762887955,0.999710738658905,0.9994256496429443,0.9993435144424438,0.999361515045166
3,3,/yh/study/new_data_2/model_dataset_new_2_flight/vi/vi_000003.jpg,-54.1414794921875,2.4837052822113037,-38.36870828226991,-3.9276417968034343,1.0,3.431870222091675,-32.565303802490234,-0.2526208460330963,-32.565303802490234,-0.2526208460330963,0.7963618040084839,0.49371814727783203,-2.281118869781494,2.3339366912841797,0.35614822059869766,-2.188369780778885,0.2751398831605911,-0.18549824506044388,0.4303478002548218,-34.12118148803711,-1.4056733846664429,25.0,25.0,-38.2850888066424,-2.0423627616445197,-36.487466395214405,-1.7797675696133948,0.41847057340704524,-0.6582820937608185,0.7800339324502161,17.02602957262779,21.74899673461914,21.74899673461914,20.39459800720215,18.16153570561542,3.181772470474243,0.035614822059869766,-0.2188369780778885,0.045856647193431854,-0.030916374176740646,-0.8034211993217468,-0.5954111814498901,0.4303478002548218,1.0,1.0,-0.9999870657920837,-0.9957548379898071,-0.9695613980293274,0.9999754428863525,0.979209303855896,0.9994868636131287,0.9984656572341919
4,4,/yh/study/new_data_2/model_dataset_new_2_flight/vi/vi_000004.jpg,-57.659645080566406,2.8609108924865723,-35.99374823303541,-4.060886472922501,1.0,6.445864677429199,-32.565303802490234,-0.2526208460330963,-32.565303802490234,-0.2526208460330963,0.7820107936859131,0.6734489798545837,-1.993429183959961,2.1041133403778076,0.5428653955459595,-1.9031493365764618,0.2611672058701515,-0.18055953830480576,0.3773519694805145,-33.91476058959961,-1.2833772897720337,25.0,25.0,-36.06899582180736,-2.4380496633742132,-35.07930846096704,-1.9178072970316062,0.7106710943181568,-0.502831468401,0.8705704393750527,22.744721694838066,25.28675651550293,25.28675651550293,24.103830337524414,23.080462503798575,3.180734634399414,0.05428653955459595,-0.19031493365764618,0.04352786764502525,-0.030093256384134293,-0.7946930527687073,-0.6070115566253662,0.3773519694805145,1.0,1.0,-0.9999799728393555,-0.9978932738304138,-0.9810749292373657,0.9999570846557617,0.9890919923782349,0.9991956353187561,0.9989206194877625
5,5,/yh/study/new_data_2/model_dataset_new_2_flight/vi/vi_000005.jpg,-60.85377502441406,3.1642963886260986,-34.405859462486006,-3.911236402760471,0.0,14.197394371032715,-32.565303802490234,-0.2526208460330963,-32.565303802490234,-0.2526208460330963,0.7812639474868774,0.6149504780769348,-1.9187344312667847,2.01487135887146,0.48628732562065125,-1.8291309475898743,0.25732630491256714,-0.17920704558491707,0.35876327753067017,-33.824729919433594,-1.262694001197815,25.0,25.0,-34.36863736664888,-2.4206387654326065,-34.1215649743449,-1.8984755971394216,0.7769546900156913,-0.36161691454602185,0.8569862211396189,27.378009457461708,28.49408721923828,28.49408721923828,27.38918685913086,27.207401830032776,3.1777544021606445,0.048628732562065125,-0.18291309475898743,0.042887717485427856,-0.02986784093081951,-0.7801029086112976,-0.6256512999534607,0.35876327753067017,1.0,1.0,-0.9999796152114868,-0.9986562132835388,-0.9742598533630371,0.9999229907989502,0.9941062927246094,0.999135434627533,0.9990184307098389
6,6,/yh/study/new_data_2/model_dataset_new_2_flight/vi/vi_000006.jpg,-64.02477264404297,3.465484857559204,-33.506614496267964,-3.8172100675217546,0.0,17.33294105529785,-32.565303802490234,-0.2526208460330963,-32.565303802490234,-0.2526208460330963,0.7878729104995728,0.48805123567581177,-1.9287372827529907,1.989527940750122,0.3625786304473877,-1.8397553265094757,0.25094521790742874,-0.17796394228935242,0.3187597692012787,-33.66695785522461,-1.1712716817855835,25.0,25.0,-33.34461028432921,-2.2600925116854436,-33.48752038524371,-1.7784516821789478,0.739934238622404,-0.2363253954500295,0.7767576005552373,31.37507963502891,31.678422927856445,31.678422927856445,30.709875106811523,30.984232214956386,3.1663119792938232,0.03625786304473877,-0.18397553265094757,0.04182420298457146,-0.029660657048225403,-0.7680131196975708,-0.6404340863227844,0.3187597692012787,1.0,1.0,-0.9999708533287048,-0.9992256164550781,-0.9472853541374207,0.9998372197151184,0.9973226189613342,0.9990251660346985,0.9990054368972778
7,7,/yh/study/new_data_2/model_dataset_new_2_flight/vi/vi_000007.jpg,-67.50447845458984,3.795994520187378,-32.99946914584261,-3.7071889798330995,0.0,20.791149139404297,-32.565303802490234,-0.2526208460330963,-32.565303802490234,-0.2526208460330963,0.7924111485481262,0.3148508667945862,-1.9179526567459106,1.9436237812042236,0.20238865166902542,-1.8325214087963104,0.2249244600534439,-0.17086251452565193,0.2587689459323883,-33.44671630859375,-1.0135937929153442,25.0,25.0,-32.74758614662131,-2.0147770776289775,-33.05212619778594,-1.5788684602612921,0.6611739216209179,-0.12342698458620593,0.6725958483038884,35.3113781950197,35.1729621887207,35.1729621887207,34.395687103271484,34.869094167837204,3.151196002960205,0.020238865166902542,-0.18325214087963104,0.03748741000890732,-0.028477085754275322,-0.7569279670715332,-0.6534984111785889,0.2587689459323883,1.0,1.0,-0.9999644756317139,-0.9996527433395386,-0.9127975106239319,0.9996402859687805,0.999157190322876,0.9990823864936829,0.999335765838623
8,8,/yh/study/new_data_2/model_dataset_new_2_flight/vi/vi_000008.jpg,-70.70535278320312,4.076558589935303,-32.73727531609019,-3.4968211263204285,0.0,23.98225975036621,-32.565303802490234,-0.2526208460330963,-32.565303802490234,-0.2526208460330963,0.7961062788963318,0.18351411819458008,-1.8700871467590332,1.8790698051452637,0.0812387652695179,-1.7884868383407593,0.20455071330070496,-0.16320069506764412,0.2117743045091629,-33.280696868896484,-0.882218599319458,25.0,25.0,-32.390952276165024,-1.702295444847498,-32.775497729346036,-1.347892509459391,0.5606783154874043,-0.03080654980510801,0.5615240128157369,38.71603010221067,38.38496017456055,38.38496017456055,37.751747131347656,38.315774481750104,3.1404576301574707,0.00812387652695179,-0.17884868383407593,0.03409178555011749,-0.027200115844607353,-0.7506862282752991,-0.66065913438797,0.2117743045091629,1.0,1.0,-0.9999665021896362,-0.9998130202293396,-0.8878335952758789,0.9993899464607239,0.9996609091758728,0.9993018507957458,0.9995782971382141
9,9,/yh/study/new_data_2/model_dataset_new_2_flight/vi/vi_000009.jpg,-73.90149688720703,4.35670804977417,-32.591983607426165,-3.2179796953339723,0.0,27.173837661743164,-32.565303802490234,-0.2526208460330963,-27.833980560302734,-0.28263363242149353,0.8023178577423096,0.5687484741210938,-2.2110178470611572,2.282996892929077,0.43666061013936996,-2.1189360320568085,0.26417577266693115,-0.1841636225581169,0.4199344515800476,-29.354795455932617,-1.404287338256836,25.0,25.0,-32.214819413858635,-1.378699059264499,-30.979905871295895,-1.3897461271071303,0.8869172239575509,-0.03372363568468602,0.8875581365501428,41.998235461127216,41.59238815307617,46.300533294677734,44.91767501831055,43.30455762323568,3.178877353668213,0.043666061013936996,-0.21189360320568085,0.044029295444488525,-0.030693937093019485,-0.804789662361145,-0.5935602188110352,0.4199344515800476,1.0,1.0,-0.9999871850013733,-0.9945501089096069,-0.9738180041313171,0.999973714351654,0.972746729850769,0.999530553817749,0.9982778429985046
10,10,/yh/study/new_data_2/model_dataset_new_2_flight/vi/vi_000010.jpg,-77.41057586669922,4.6642866134643555,-30.41115737482306,-3.6007639704429972,0.0,30.681941986083984,-32.565303802490234,-0.2526208460330963,-27.833980560302734,-0.28263363242149353,0.8124532699584961,0.674071192741394,-1.970994234085083,2.0830724239349365,0.5514637753367424,-1.88118115067482,0.24521483480930328,-0.17962635308504105,0.3841751515865326,-29.19696617126465,-1.3461089134216309,25.0,25.0,-30.092988647338345,-1.4234697627918163,-29.705254760568568,-1.3900010214907164,0.9900842558344943,-0.024822387709435352,0.990395367811735,47.72060770494292,45.114017486572266,49.822792053222656,48.586795806884766,48.08796170150909,3.1813571453094482,0.05514637753367424,-0.188118115067482,0.04086913913488388,-0.029937725514173508,-0.7884050607681274,-0.6151564717292786,0.3841751515865326,1.0,1.0,-0.9999820590019226,-0.9980915188789368,-0.9796826839447021,0.9999522566795349,0.990050733089447,0.9992340207099915,0.9989712834358215
11,11,/yh/study/new_data_2/model_dataset_new_2_flight/vi/vi_000011.jpg,-80.71418762207031,4.9646830558776855,-29.031183567827174,-3.360995348708057,0.0,38.7188606262207,-27.833980560302734,-0.28263363242149353,-27.833980560302734,-0.28263363242149353,0.8090406656265259,0.5954989194869995,-1.890055775642395,1.981648325920105,0.4670778661966324,-1.8011127412319183,0.25684207677841187,-0.17788604646921158,0.33824095129966736,-29.020416259765625,-1.2361071109771729,25.0,25.0,-28.715170504734076,-1.4148234092001517,-28.847622939235443,-1.3372930021622447,0.9547186421350153,-0.004127379080855732,0.9547275637050627,52.34930590721809,53.13991928100586,53.13991928100586,52.0643424987793,52.24801847185022,3.1750192642211914,0.04670778661966324,-0.18011127412319183,0.04280701279640198,-0.029647674411535263,-0.7794808149337769,-0.6264262199401855,0.33824095129966736,1.0,1.0,-0.9999750852584839,-0.9989773035049438,-0.97139972448349,0.9999135136604309,0.9957368969917297,0.9989895820617676,0.999092161655426
12,12,/yh/study/new_data_2/model_dataset_new_2_flight/vi/vi_000012.jpg,-84.01985931396484,5.2652668952941895,-28.252124034649604,-3.2273487666287686,0.0,42.02830123901367,-27.833980560302734,-0.28263363242149353,-27.833980560302734,-0.28263363242149353,0.8089777827262878,0.40110069513320923,-1.8678194284439087,1.9104008674621582,0.28320765122771263,-1.7811758816242218,0.2357860878109932,-0.17328717559576035,0.26445215940475464,-28.74193000793457,-1.0519262552261353,25.0,25.0,-27.892904297100426,-1.3414203812431005,-28.262107475544568,-1.215556750176236,0.8560298691621957,0.029511414885271967,0.8565384174141734,56.41068000799955,56.45912170410156,56.45912170410156,55.637725830078125,56.13312716389983,3.1570870876312256,0.028320765122771263,-0.17811758816242218,0.0392976813018322,-0.028881195932626724,-0.7629601359367371,-0.6464455127716064,0.26445215940475464,1.0,1.0,-0.9999626874923706,-0.9995703101158142,-0.9327056407928467,0.9997391104698181,0.998780369758606,0.9989063143730164,0.9992486834526062
13,13,/yh/study/new_data_2/model_dataset_new_2_flight/vi/vi_000013.jpg,-87.32689666748047,5.565974712371826,-27.86100678041136,-3.083376219598338,0.0,45.340553283691406,-27.833980560302734,-0.28263363242149353,-27.833980560302734,-0.28263363242149353,0.808374285697937,0.18361200392246246,-1.7527053356170654,1.7622965574264526,0.08412370458245277,-1.6731823980808258,0.19897661358118057,-0.15904587507247925,0.19213606417179108,-28.48355484008789,-0.8532533645629883,25.0,25.0,-27.40607760638237,-1.1860453352909641,-27.87523720228029,-1.0411589125725338,0.7306261870355444,0.06823693982990264,0.7338057679927625,60.091624471347096,59.77970504760742,59.77970504760742,59.19244384765625,59.81767320703804,3.140470027923584,0.008412370458245277,-0.16731823980808258,0.03316276893019676,-0.026507645845413208,-0.7512903213500977,-0.6599718332290649,0.19213606417179108,1.0,1.0,-0.9999648928642273,-0.9998513460159302,-0.8946959376335144,0.9991909265518188,0.9997303485870361,0.9992367029190063,0.9996684789657593
14,14,/yh/study/new_data_2/model_dataset_new_2_flight/vi/vi_000014.jpg,-90.52931213378906,5.903904438018799,-27.691625190907246,-2.793864248189599,0.0,48.55038070678711,-27.833980560302734,-0.28263363242149353,-27.833980560302734,-0.28263363242149353,0.8108383417129517,0.07596629858016968,-1.768631100654602,1.7702618837356567,-0.018050268990918994,-1.6905999183654785,0.18803313374519348,-0.15606247633695602,0.1649014949798584,-28.388172149658203,-0.7761111259460449,25.0,25.0,-27.144611015244745,-0.9729219727426311,-27.686433650220113,-0.8871777262472196,0.5858545808516622,0.09114726706031565,0.5929025334719369,63.43678806852068,62.99982452392578,62.99982452392578,62.499149322509766,63.20875076334309,3.130741596221924,-0.0018050268990918994,-0.16905999183654785,0.031338855624198914,-0.026010412722826004,-0.7468316555023193,-0.6650131344795227,0.1649014949798584,1.0,1.0,-0.9999672174453735,-0.9999011158943176,-0.8649243116378784,0.9990863800048828,0.9998587965965271,0.9994558691978455,0.9997365474700928
15,15,/yh/study/new_data_2/model_dataset_new_2_flight/vi/vi_000015.jpg,-93.73101806640625,6.241759300231934,-27.610467352338436,-2.655808882781176,0.0,51.760780334472656,-27.803403854370117,4.475525379180908,-27.803403854370117,4.475525379180908,0.8015182018280029,0.11400061100721359,-1.8525872230529785,1.8560914993286133,0.019069932168349624,-1.772865653038025,0.18986137211322784,-0.159443199634552,0.1962767243385315,-28.462743759155273,3.887824058532715,25.0,25.0,-27.10057906936845,-0.796030459186904,-27.69421727339961,1.2451348719182787,0.42729413832655977,0.6363492891987637,0.7664989879393247,66.71651929097457,65.9512710571289,65.9512710571289,65.31070709228516,66.22556390588807,3.141591787338257,0.0019069932168349624,-0.1772865653038025,0.03164356201887131,-0.026573866605758667,-0.7464973330497742,-0.6653885841369629,0.1962767243385315,1.0,1.0,-0.9999819397926331,-0.9997659921646118,-0.895394504070282,0.9994023442268372,0.9996728897094727,0.9997099041938782,0.9995667338371277
16,16,/yh/study/new_data_2/model_dataset_new_2_flight/vi/vi_000016.jpg,-97.24320983886719,6.612377643585205,-27.580216655174645,-0.6074523809370223,0.0,55.283729553222656,-27.803403854370117,4.475525379180908,-27.803403854370117,4.475525379180908,0.8238641023635864,0.091555155813694,-1.920800805091858,1.9229816198349,-0.0061312870820984244,-1.8388313055038452,0.19537288695573807,-0.16393901780247688,0.19918756186962128,-28.47315788269043,3.879822254180908,25.0,25.0,-27.26692313507305,1.8814841611170423,-27.792629010740452,2.7523922395523748,0.2869093577918526,0.8689202403951596,0.9150624917222403,70.03612328573153,69.47267150878906,69.47267150878906,68.8243179321289,69.55776494887908,3.1396493911743164,-0.0006131287082098424,-0.18388313055038452,0.032562147825956345,-0.027323169633746147,-0.7472062706947327,-0.6645921468734741,0.19918756186962128,1.0,1.0,-0.9999777674674988,-0.9997533559799194,-0.8866164684295654,0.999470591545105,0.9996355175971985,0.9996668696403503,0.9995023012161255
17,17,/yh/study/new_data_2/model_dataset_new_2_flight/vi/vi_000017.jpg,-100.48795318603516,6.946656227111816,-27.70107385434468,0.8315914251472911,0.0,58.53901672363281,-27.803403854370117,4.475525379180908,-27.803403854370117,4.475525379180908,0.8416075706481934,0.09634877741336823,-1.9518433809280396,1.954219937324524,-0.004164902202319354,-1.8688499927520752,0.20102736353874207,-0.16598685085773468,0.20208129286766052,-28.484310150146484,3.8727707862854004,25.0,25.0,-27.5057196529486,3.6213124799475342,-27.932203149844018,3.7309008505819596,0.17303242768985344,0.8981820852550035,0.9146973703391034,73.04330099590445,72.7265396118164,72.7265396118164,72.06922912597656,72.6269780863553,3.1401939392089844,-0.0004164902202319354,-0.18688499927520752,0.033504560589790344,-0.02766447514295578,-0.7487704157829285,-0.662829577922821,0.20208129286766052,1.0,1.0,-0.9999729990959167,-0.9997621178627014,-0.8872991800308228,0.999506413936615,0.9996212720870972,0.9995818734169006,0.9994881749153137
18,18,/yh/study/new_data_2/model_dataset_new_2_flight/vi/vi_000018.jpg,-103.73233032226562,7.28089714050293,-27.835854370276966,1.779057432401017,0.0,61.79463195800781,-27.803403854370117,4.475525379180908,-27.803403854370117,4.475525379180908,0.8514323830604553,0.1269974559545517,-1.9957711696624756,1.9998077154159546,0.021071226801723242,-1.9114328920841217,0.21185244619846344,-0.16867651417851448,0.20950715243816376,-28.513811111450195,3.8557188510894775,25.0,25.0,-27.759170722154163,4.629082935836963,-28.088043903616693,4.292050520805621,0.08522113607026881,0.8081918792845594,0.8126726006053206,76.09563260860928,75.9807357788086,75.9807357788086,75.29646301269531,75.70331083844795,3.146230459213257,0.002107122680172324,-0.19114328920841217,0.03530874103307724,-0.028112752363085747,-0.7535220384597778,-0.6574228405952454,0.20950715243816376,1.0,1.0,-0.9999668002128601,-0.9997487664222717,-0.9059510231018066,0.9996223449707031,0.9995502233505249,0.9994388818740845,0.9994463920593262
19,19,/yh/study/new_data_2/model_dataset_new_2_flight/vi/vi_000019.jpg,-107.29228973388672,7.647648811340332,-27.96104645371574,2.2962793716322425,0.0,65.34697723388672,-27.772829055786133,9.233684539794922,-27.772829055786133,9.233684539794922,0.8657201528549194,0.1964358240365982,-2.0512852668762207,2.060669422149658,0.08645272813737392,-1.9645439088344574,0.21996621787548065,-0.17348302155733109,0.26370885968208313,-28.667255401611328,8.453789710998535,25.0,25.0,-28.002822767546423,5.100242400090181,-28.292378076671007,6.561695510008071,0.007907483860758499,1.1984122683814395,1.198438356073501,79.51152944861465,79.5352783203125,79.5352783203125,78.62916564941406,79.00737520270219,3.1540186405181885,0.008645272813737392,-0.19645439088344574,0.03666103631258011,-0.028913836926221848,-0.7537146210670471,-0.6572020053863525,0.26370885968208313,1.0,1.0,-0.9999761581420898,-0.9995239973068237,-0.9183661937713623,0.9997211694717407,0.9990819096565247,0.9995511770248413,0.9991670250892639
20,20,/yh/study/new_data_2/model_dataset_new_2_flight/vi/vi_000020.jpg,-110.61548614501953,7.9523024559021,-28.095942239595892,4.510410090394948,0.0,68.6623764038086,-27.772829055786133,9.233684539794922,-27.772829055786133,9.233684539794922,0.8709133267402649,0.26935485005378723,-2.094062328338623,2.111314535140991,0.15149051323533058,-2.0045487582683563,0.2357286885380745,-0.1790272369980812,0.2952215373516083,-28.7802734375,8.367681503295898,25.0,25.0,-28.284470592810248,7.760107778389511,-28.500536833548868,8.024882691483818,-0.04978483340662747,1.2691103716217127,1.2700864793371858,82.5912934237918,82.85256958007812,82.85256958007812,81.83626556396484,82.11498138778327,3.161846399307251,0.015149051323533058,-0.20045487582683563,0.03928811475634575,-0.029837872833013535,-0.7583333849906921,-0.6518667936325073,0.2952215373516083,1.0,1.0,-0.9999746084213257,-0.9992836117744446,-0.9358462691307068,0.9997924566268921,0.9982994198799133,0.9994704127311707,0.9989085793495178
21,21,/yh/study/new_data_2/model_dataset_new_2_flight/vi/vi_000021.jpg,-113.93445587158203,8.25656795501709,-28.2311819760445,5.930820314716421,0.0,71.97555541992188,-27.772829055786133,9.233684539794922,-27.772829055786133,9.233684539794922,0.8685036897659302,0.40291404724121094,-2.0740365982055664,2.1128103733062744,0.2754899673163891,-1.9829632341861725,0.2548481896519661,-0.18214664608240128,0.3249843418598175,-28.89884376525879,8.30052375793457,25.0,25.0,-28.550321666955494,9.29399306310553,-28.702204466516584,8.861048164736824,-0.09033989051146693,1.1535074585951077,1.1570396505099416,85.73482523747214,86.16716766357422,86.16716766357422,85.03562927246094,85.23439491132805,3.169339179992676,0.02754899673163891,-0.19829632341861725,0.04247469827532768,-0.03035777434706688,-0.7699621915817261,-0.6380894780158997,0.3249843418598175,1.0,1.0,-0.9999728798866272,-0.9990234375,-0.9531657695770264,0.9998657703399658,0.996921718120575,0.9992653131484985,0.9988275170326233
22,22,/yh/study/new_data_2/model_dataset_new_2_flight/vi/vi_000022.jpg,-117.24945068359375,8.560468673706055,-28.29929040437421,6.78701160750945,0.0,75.28650665283203,-27.772829055786133,9.233684539794922,-27.772829055786133,9.233684539794922,0.8749754428863525,0.5446667671203613,-1.9938195943832397,2.0668764114379883,0.4123716428875923,-1.9033156335353851,0.2645903080701828,-0.18100807070732117,0.33016976714134216,-28.936065673828125,8.309361457824707,25.0,25.0,-28.79254435702805,10.014555623331931,-28.855089870034867,9.27144502709114,-0.10704063155043207,0.9550840916577205,0.9610636393810601,88.96783780481849,89.47915649414062,89.47915649414062,88.3137435913086,88.39722004120212,3.174370765686035,0.04123716428875923,-0.1903315633535385,0.0440983846783638,-0.030168011784553528,-0.782922089099884,-0.6221197247505188,0.33016976714134216,1.0,1.0,-0.9999703168869019,-0.9988860487937927,-0.9704679846763611,0.9999165534973145,0.99578857421875,0.998986542224884,0.9989556074142456
23,23,/yh/study/new_data_2/model_dataset_new_2_flight/vi/vi_000023.jpg,-120.81004333496094,8.859625816345215,-28.310423073112183,7.277625358202094,0.0,78.84459686279297,-27.772829055786133,9.233684539794922,-27.772829055786133,9.233684539794922,0.8594350814819336,0.6160088777542114,-1.93231201171875,2.0281262397766113,0.4797003045678139,-1.8420930206775665,0.2726171761751175,-0.1804380901157856,0.31986403465270996,-28.90947723388672,8.350582122802734,25.0,25.0,-28.9621305015853,10.22652911874886,-28.939184525557486,9.409002985227884,-0.10091363719893788,0.7367897600560822,0.7436684158253718,92.51314757393018,93.03797149658203,93.03797149658203,91.90196990966797,91.87250140086005,3.1746881008148193,0.04797003045678139,-0.18420930206775665,0.04543619602918625,-0.0300730150192976,-0.7896745800971985,-0.6135260462760925,0.31986403465270996,1.0,1.0,-0.9999663829803467,-0.9988239407539368,-0.9765293002128601,0.9999310970306396,0.9952677488327026,0.998745858669281,0.9990108013153076
24,24,/yh/study/new_data_2/model_dataset_new_2_flight/vi/vi_000024.jpg,-124.06947326660156,9.133479118347168,-28.323175632902114,7.476690919492425,0.0,82.1028823852539,-27.772829055786133,9.233684539794922,-27.772829055786133,9.233684539794922,0.8499239087104797,0.6371905207633972,-1.8350534439086914,1.9425326585769653,0.49980372190475464,-1.744590848684311,0.27477360516786575,-0.18092531338334084,0.30285516381263733,-28.850135803222656,8.398961067199707,25.0,25.0,-29.040098162756426,10.145792745283966,-28.957313518444426,9.384532421812533,-0.07880861025251484,0.5335192390237784,0.539308423314938,95.76063104270368,96.29669952392578,96.29669952392578,95.22216796875,95.11249108145651,3.17354679107666,0.049980372190475464,-0.1744590848684311,0.04579560086131096,-0.030154218897223473,-0.7904825210571289,-0.6124846339225769,0.30285516381263733,1.0,1.0,-0.9999721646308899,-0.998618483543396,-0.9804427027702332,0.9999185800552368,0.9948083162307739,0.998946487903595,0.9989556074142456
25,25,/yh/study/new_data_2/model_dataset_new_2_flight/vi/vi_000025.jpg,-127.31895446777344,9.40649700164795,-28.32012299395574,7.549478916436552,0.0,85.35218048095703,-27.772829055786133,9.233684539794922,-27.772829055786133,9.233684539794922,0.8490047454833984,0.6411948800086975,-1.824053406715393,1.9334688186645508,0.5056280642747879,-1.7338554561138153,0.271133691072464,-0.1803959459066391,0.29558464884757996,-28.826122283935547,8.421390533447266,25.0,25.0,-29.03612212869694,9.918051660836312,-28.94460512746521,9.26581347064687,-0.0543718899046392,0.359359667125112,0.36344968395649146,99.01624689590169,99.54627990722656,99.54627990722656,98.49775695800781,98.37444993485299,3.173478126525879,0.05056280642747879,-0.17338554561138153,0.04518894851207733,-0.03006599098443985,-0.7918718457221985,-0.6106874346733093,0.29558464884757996,1.0,1.0,-0.9999715685844421,-0.9989145994186401,-0.9809987545013428,0.9999223947525024,0.9960174560546875,0.998896598815918,0.9991027116775513
26,26,/yh/study/new_data_2/model_dataset_new_2_flight/vi/vi_000026.jpg,-130.83126831054688,9.741641998291016,-28.30341021765419,7.441760041579736,0.0,88.86544036865234,-27.772829055786133,9.233684539794922,-27.772829055786133,9.233684539794922,0.8497530221939087,0.6243417263031006,-1.8026206493377686,1.9076802730560303,0.4895332083106041,-1.7124521732330322,0.26961708068847656,-0.18033692613244057,0.293033242225647,-28.813844680786133,8.424286842346191,25.0,25.0,-28.99897701736985,9.625173137771982,-28.918297118141208,9.10183194664396,-0.032828885716587944,0.21961802520310392,0.22205812917230475,102.55365006732401,103.0596923828125,103.0596923828125,102.02592468261719,101.91497953768275,3.1726739406585693,0.04895332083106041,-0.17124521732330322,0.044936180114746094,-0.03005615435540676,-0.7894552946090698,-0.6138079762458801,0.293033242225647,1.0,1.0,-0.9999728798866272,-0.9988754987716675,-0.9797168970108032,0.9999111294746399,0.9959525465965271,0.9989545941352844,0.9990748763084412
27,27,/yh/study/new_data_2/model_dataset_new_2_flight/vi/vi_000027.jpg,-134.03652954101562,10.047489166259766,-28.293955369486365,7.299211310344708,0.0,92.07256317138672,-27.772829055786133,9.233684539794922,-27.772829055786133,9.233684539794922,0.8513578772544861,0.6172221302986145,-1.8487060070037842,1.949019432067871,0.4831076040863991,-1.7584674060344696,0.268229104578495,-0.18047723919153214,0.30095091462135315,-28.838857650756836,8.398427963256836,25.0,25.0,-28.951126003857794,9.321449971847064,-28.902199915260574,8.919200775454922,-0.019764733122141935,0.11221019564243377,0.1139375823927415,105.77828238156772,106.26681518554688,106.26681518554688,105.2105941772461,105.14038377592951,3.17281174659729,0.04831076040863991,-0.17584674060344696,0.044704850763082504,-0.030079539865255356,-0.7871562838554382,-0.6167535781860352,0.30095091462135315,1.0,1.0,-0.9999721646308899,-0.9989573359489441,-0.9766989350318909,0.9999136328697205,0.9961855411529541,0.9989364147186279,0.9990576505661011
28,28,/yh/study/new_data_2/model_dataset_new_2_flight/vi/vi_000028.jpg,-137.2352752685547,10.352712631225586,-28.284977758884928,7.070494749824686,0.0,95.27401733398438,-27.772829055786133,9.233684539794922,-27.772829055786133,9.233684539794922,0.849976122379303,0.5853567123413086,-1.8875795602798462,1.9762588739395142,0.45179225504398346,-1.7970314621925354,0.26712895184755325,-0.18109630420804024,0.3117986023426056,-28.871421813964844,8.360891342163086,25.0,25.0,-28.921964648382716,9.031410971097355,-28.899938287844193,8.739201263638535,-0.013883296860795553,0.03418492257194172,0.03689654269677074,108.99972606234631,109.4681625366211,109.4681625366211,108.38215637207031,108.347351871919,3.172342538833618,0.045179225504398346,-0.17970314621925354,0.04452149197459221,-0.030182717368006706,-0.7829784154891968,-0.6220489144325256,0.3117986023426056,1.0,1.0,-0.9999723434448242,-0.9989045858383179,-0.9715964198112488,0.9999035596847534,0.9959059953689575,0.9989830851554871,0.9989765882492065
29,29,/yh/study/new_data_2/model_dataset_new_2_flight/vi/vi_000029.jpg,-140.4192352294922,10.665609359741211,-28.314581556876433,6.851621649341979,0.0,98.4615707397461,-27.772829055786133,9.233684539794922,-27.772829055786133,9.233684539794922,0.8685486912727356,0.5405038595199585,-1.9085228443145752,1.9835835695266724,0.40678057819604874,-1.8169181048870087,0.26744652539491653,-0.1832093931734562,0.3191463351249695,-28.890939712524414,8.33236312866211,25.0,25.0,-28.91382158470499,8.773386186210477,-28.90384975875952,8.581190149538514,-0.011220639383414475,-0.017134887995535905,0.020481873322335347,112.16951402815383,112.65550994873047,112.65550994873047,111.55270385742188,111.53486450491594,3.171234607696533,0.040678057819604874,-0.18169181048870087,0.044574420899152756,-0.0305348988622427,-0.7785423994064331,-0.6275920271873474,0.3191463351249695,1.0,1.0,-0.9999745488166809,-0.9987045526504517,-0.9663734436035156,0.999880313873291,0.995173454284668,0.9991254210472107,0.9988338947296143
30,30,/yh/study/new_data_2/model_dataset_new_2_flight/vi/vi_000030.jpg,-143.60858154296875,10.979033470153809,-28.363345917866013,6.672667348064778,0.0,101.65524291992188,-27.772829055786133,9.233684539794922,-27.772829055786133,9.233684539794922,0.8669244647026062,0.5203573703765869,-1.934407353401184,2.003173351287842,0.38672085851430893,-1.842324137687683,0.2672730088233948,-0.1841665282845497,0.3253241777420044,-28.910409927368164,8.312226295471191,25.0,25.0,-28.915070398142934,8.564055261542979,-28.91303938418284,8.454309235928463,-0.010678322012202384,-0.04643905698581954,0.0476509451609145,115.32566550192946,115.8488998413086,115.8488998413086,114.72917175292969,114.72332641427688,3.1710426807403564,0.03867208585143089,-0.1842324137687683,0.044545501470565796,-0.030694421380758286,-0.7770578265190125,-0.6294291615486145,0.3253241777420044,1.0,1.0,-0.9999755024909973,-0.9986578226089478,-0.9634770750999451,0.9998738169670105,0.9950222373008728,0.9991806149482727,0.9987879991531372
31,31,/yh/study/new_data_2/model_dataset_new_2_flight/vi/vi_000031.jpg,-147.09031677246094,11.321191787719727,-28.392682021256835,6.519901834098505,0.0,105.1424789428711,-27.772829055786133,9.233684539794922,-27.772829055786133,9.233684539794922,0.8647716045379639,0.50934898853302,-1.953353762626648,2.018669843673706,0.37562116980552673,-1.8611477315425873,0.26745571196079254,-0.18441230803728104,0.32943254709243774,-28.92327308654785,8.298737525939941,25.0,25.0,-28.923717706195045,8.407870178942643,-28.92352394278816,8.360310619266835,-0.010626583685897065,-0.05913831768773273,0.060085479941235184,118.79470055835404,119.33574676513672,119.33574676513672,118.2056884765625,118.20388210606495,3.1707687377929688,0.03756211698055267,-0.18611477315425873,0.044575951993465424,-0.030735384672880173,-0.7760441899299622,-0.6306785941123962,0.32943254709243774,1.0,1.0,-0.9999752640724182,-0.9986637234687805,-0.9608472585678101,0.999871015548706,0.9950440526008606,0.9991833567619324,0.9987685084342957
32,32,/yh/study/new_data_2/model_dataset_new_2_flight/vi/vi_000032.jpg,-150.38534545898438,11.621426582336426,-28.41417491700224,6.4069567337056075,0.0,108.44287872314453,-27.772829055786133,9.233684539794922,-27.772829055786133,9.233684539794922,0.8638297319412231,0.4933476448059082,-1.9606291055679321,2.0217463970184326,0.35957593470811844,-1.86818465590477,0.2675434425473213,-0.18488894775509834,0.33069708943367004,-28.92620849609375,8.293329238891602,25.0,25.0,-28.93415052647406,8.301172301579102,-28.930689422431822,8.297754327249361,-0.00970240643002739,-0.06005097853123024,0.060829735434996854,122.08258327535329,122.6357650756836,122.6357650756836,121.50472259521484,121.50012456872844,3.1704049110412598,0.035957593470811844,-0.186818465590477,0.04459057375788689,-0.030814824625849724,-0.7750490307807922,-0.6319010853767395,0.33069708943367004,1.0,1.0,-0.9999752640724182,-0.9985984563827515,-0.9594224691390991,0.99986332654953,0.9948455095291138,0.9992033243179321,0.9987400770187378
33,33,/yh/study/new_data_2/model_dataset_new_2_flight/vi/vi_000033.jpg,-153.68882751464844,11.922432899475098,-28.437341766450043,6.337125197467042,0.0,111.75223541259766,-27.772829055786133,9.233684539794922,-27.772829055786133,9.233684539794922,0.8648413419723511,0.5096569061279297,-1.9725518226623535,2.0373294353485107,0.3762701526284218,-1.8805290758609772,0.26677355915308,-0.18404558300971985,0.3341335654258728,-28.93886947631836,8.284387588500977,25.0,25.0,-28.94039182886185,8.237703348718131,-28.93972839390824,8.258048147678323,-0.009525257319320747,-0.05461854989466089,0.055442912257517955,125.37595600535717,125.9447021484375,125.9447021484375,124.80298614501953,124.80290640464052,3.170964241027832,0.03762701526284218,-0.18805290758609772,0.044462259858846664,-0.030674263834953308,-0.7754986882209778,-0.6313492059707642,0.3341335654258728,1.0,1.0,-0.999975323677063,-0.9987361431121826,-0.959142804145813,0.9998746514320374,0.9952998757362366,0.9991788864135742,0.9987807869911194
34,34,/yh/study/new_data_2/model_dataset_new_2_flight/vi/vi_000034.jpg,-156.9862060546875,12.222880363464355,-28.430071461703278,6.285496280312486,0.0,115.05592346191406,-27.772829055786133,9.233684539794922,-27.772829055786133,9.233684539794922,0.8639900088310242,0.48716408014297485,-1.9680309295654297,2.027430534362793,0.3534397482872009,-1.8756590783596039,0.26744869351387024,-0.18474382907152176,0.3322726786136627,-28.930402755737305,8.287256240844727,25.0,25.0,-28.94925365122756,8.203429597783662,-28.94103850875879,8.239960902914977,-0.007331665942863952,-0.04486403179997655,0.04545915391697318,128.69317103576375,129.24795532226562,129.24795532226562,128.11627197265625,128.10709808318265,3.170088291168213,0.03534397482872009,-0.1875659078359604,0.04457478225231171,-0.03079063817858696,-0.7741794586181641,-0.6329662203788757,0.3322726786136627,1.0,1.0,-0.99997478723526,-0.9986158609390259,-0.957653820514679,0.999860942363739,0.994900643825531,0.9991945028305054,0.9987322688102722
35,35,/yh/study/new_data_2/model_dataset_new_2_flight/vi/vi_000035.jpg,-161.97410583496094,12.701958656311035,-28.453874413714654,6.271929910019612,0.0,120.0457992553711,-27.772829055786133,9.233684539794922,-27.772829055786133,9.233684539794922,0.8635108470916748,0.4842294454574585,-1.9702553749084473,2.0288875102996826,0.3503532335162163,-1.8776202201843262,0.2677524536848068,-0.18527040258049965,0.3329261541366577,-28.933027267456055,8.285820007324219,25.0,25.0,-28.948370174701655,8.195096871115,-28.94168379900856,8.234633639657797,-0.005546282895077208,-0.034307000675827835,0.03475243227924454,133.67496949115528,134.24609375,134.24609375,133.11434936523438,133.10740890557582,3.170398235321045,0.03503532335162163,-0.18776202201843262,0.044625408947467804,-0.030878400430083275,-0.7744112610816956,-0.6326826214790344,0.3329261541366577,1.0,1.0,-0.9999756217002869,-0.9985421299934387,-0.9587023854255676,0.9998595714569092,0.9946885108947754,0.9992275834083557,0.998714029788971
36,36,/yh/study/new_data_2/model_dataset_new_2_flight/vi/vi_000036.jpg,-166.95358276367188,13.180227279663086,-28.45745433864994,6.2643782181832215,0.0,125.02059173583984,-27.772829055786133,9.233684539794922,-27.772829055786133,9.233684539794922,0.8637164831161499,0.4939558506011963,-1.9780257940292358,2.038768768310547,0.36011725664138794,-1.8856124579906464,0.2676771953701973,-0.18482670933008194,0.33499622344970703,-28.940670013427734,8.280452728271484,25.0,25.0,-28.947230081903637,8.20032663898197,-28.944371231112818,8.235245258279278,-0.0047829181106463,-0.02498309878658169,0.025436814474954366,138.66869349987164,139.23670959472656,139.23670959472656,138.099853515625,138.09777447529862,3.1705191135406494,0.036011725664138794,-0.18856124579906464,0.04461286589503288,-0.030804451555013657,-0.7746961712837219,-0.6323335766792297,0.33499622344970703,1.0,1.0,-0.9999753832817078,-0.9986417889595032,-0.9577562212944031,0.9998664259910583,0.9950018525123596,0.9992026090621948,0.9987372756004333
37,37,/yh/study/new_data_2/model_dataset_new_2_flight/vi/vi_000037.jpg,-170.4643096923828,13.542064666748047,-28.45041537678633,6.257219445623591,0.0,128.52920532226562,-27.772829055786133,9.233684539794922,-27.772829055786133,9.233684539794922,0.8629334568977356,0.4895721673965454,-1.9772459268569946,2.036954164505005,0.3556009754538536,-1.8848121166229248,0.267942376434803,-0.18486765772104263,0.334710031747818,-28.93922996520996,8.280723571777344,25.0,25.0,-28.949154149223464,8.210262159492697,-28.944829230747924,8.240968952448354,-0.0036280867817252063,-0.016783830588588015,0.01717148749882059,142.20061585160994,142.7565155029297,142.7565155029297,141.6228485107422,141.6187309853581,3.170318126678467,0.03556009754538536,-0.18848121166229248,0.044657062739133835,-0.03081127628684044,-0.7744019031524658,-0.6326941251754761,0.334710031747818,1.0,1.0,-0.9999750852584839,-0.9986209869384766,-0.9573483467102051,0.9998641610145569,0.9949169754981995,0.9991990327835083,0.9987272620201111
38,38,/yh/study/new_data_2/model_dataset_new_2_flight/vi/vi_000038.jpg,-173.6732940673828,13.872800827026367,-28.45525706707667,6.2637230069649075,0.0,131.73721313476562,-27.772829055786133,9.233684539794922,-27.772829055786133,9.233684539794922,0.8618585467338562,0.48604607582092285,-1.977614164352417,2.0364673137664795,0.35196345299482346,-1.8850505352020264,0.2681652680039406,-0.18512726202607155,0.33482763171195984,-28.939666748046875,8.28042221069336,25.0,25.0,-28.94845731752965,8.224185121859765,-28.944626423590677,8.248693013318087,-0.0026051689254072584,-0.010239781029053041,0.010565984130825778,145.4172490989086,145.9741973876953,145.9741973876953,144.8416290283203,144.83790189949406,3.1703641414642334,0.035196345299482346,-0.18850505352020264,0.0446942113339901,-0.030854543671011925,-0.7744197845458984,-0.6326720714569092,0.33482763171195984,1.0,1.0,-0.9999752640724182,-0.9985738396644592,-0.9576767086982727,0.9998623728752136,0.9947627186775208,0.9992120265960693,0.9987143874168396
39,39,/yh/study/new_data_2/model_dataset_new_2_flight/vi/vi_000039.jpg,-176.89031982421875,14.204366683959961,-28.458580336593883,6.271078847103025,0.0,134.95413208007812,-27.772829055786133,9.233684539794922,-27.772829055786133,9.233684539794922,0.8627749681472778,0.5002214312553406,-1.9832533597946167,2.0453643798828125,0.36639321595430374,-1.8910180032253265,0.26765647530555725,-0.18447065725922585,0.3367082476615906,-28.94715118408203,8.276208877563477,25.0,25.0,-28.947231592516083,8.238453232289034,-28.947196550852023,8.254906986842789,-0.002595812168359052,-0.005846331458821628,0.006396704803241146,148.6435950292664,149.2003173828125,149.2003173828125,148.06190490722656,148.06270223984905,3.1707816123962402,0.036639321595430374,-0.18910180032253265,0.04460941255092621,-0.030745109543204308,-0.7750341892242432,-0.6319193243980408,0.3367082476615906,1.0,1.0,-0.9999752640724182,-0.9986850619316101,-0.9577351808547974,0.9998717308044434,0.9951097369194031,0.9991878271102905,0.998751163482666
40,40,/yh/study/new_data_2/model_dataset_new_2_flight/vi/vi_000040.jpg,-180.07899475097656,14.495210647583008,-28.44697509724494,6.271653654987849,0.0,138.14337158203125,-27.772829055786133,9.233684539794922,-27.772829055786133,9.233684539794922,0.8635780811309814,0.4944959282875061,-1.9795525074005127,2.0403809547424316,0.36048997193574905,-1.8872593343257904,0.2680119350552559,-0.18458662927150726,0.33580005168914795,-28.943286895751953,8.277937889099121,25.0,25.0,-28.949792363020382,8.249060655383968,-28.946957307205132,8.26164523478362,-0.001838801073446404,-0.002486021520917872,0.0030921662940686834,151.85485265173486,152.3970184326172,152.3970184326172,151.26353454589844,151.26053708638344,3.1704201698303223,0.036048997193574905,-0.18872593343257904,0.04466865584254265,-0.030764438211917877,-0.7745733857154846,-0.6324841380119324,0.33580005168914795,1.0,1.0,-0.9999748468399048,-0.9986576437950134,-0.9571191072463989,0.9998677968978882,0.9950000643730164,0.9991818070411682,0.9987367987632751
41,41,/yh/study/new_data_2/model_dataset_new_2_flight/vi/vi_000041.jpg,-183.2713623046875,14.786392211914062,-28.452461367741755,6.282092585822076,0.0,141.3368682861328,-27.772829055786133,9.233684539794922,-27.772829055786133,9.233684539794922,0.8628331422805786,0.48511627316474915,-1.973847508430481,2.0325875282287598,0.3509226441383362,-1.8812264502048492,0.2683872655034065,-0.1852421835064888,0.33423519134521484,-28.937665939331055,8.282186508178711,25.0,25.0,-28.94879610827858,8.259159213262702,-28.943945626538248,8.269194413451075,-0.0005436348643394595,0.0001935581335408428,0.0005770646556367816,155.05229827208032,155.59764099121094,155.59764099121094,154.47068786621094,154.46496497813152,3.170415163040161,0.03509226441383362,-0.18812264502048492,0.04473121091723442,-0.030873697251081467,-0.7744620442390442,-0.6326203346252441,0.33423519134521484,1.0,1.0,-0.999975323677063,-0.9985359907150269,-0.9583325386047363,0.9998616576194763,0.9946105480194092,0.9992162585258484,0.9987046718597412
42,42,/yh/study/new_data_2/model_dataset_new_2_flight/vi/vi_000042.jpg,-186.7760009765625,15.10605525970459,-28.45882934964821,6.295346871492981,0.0,144.84336853027344,-27.772829055786133,9.233684539794922,-27.772829055786133,9.233684539794922,0.8628917336463928,0.4932306408882141,-1.9743740558624268,2.0350501537323,0.35908885300159454,-1.881813406944275,0.2682836204767227,-0.18512127175927162,0.3349132239818573,-28.94059181213379,8.280946731567383,25.0,25.0,-28.944489261402587,8.269387971584615,-28.942790769079547,8.274425231530943,-9.010674466037623e-05,0.00153859749628066,0.00154123375287281,158.56215000512557,159.111572265625,159.111572265625,157.98289489746094,157.98099067052766,3.1706628799438477,0.035908885300159454,-0.1881813406944275,0.04471393674612045,-0.030853545293211937,-0.7748358845710754,-0.6321625113487244,0.3349132239818573,1.0,1.0,-0.9999755620956421,-0.9985793828964233,-0.9586647152900696,0.9998657703399658,0.9947551488876343,0.9992119669914246,0.9987189769744873
43,43,/yh/study/new_data_2/model_dataset_new_2_flight/vi/vi_000043.jpg,-190.19520568847656,15.40483283996582,-28.44956010583959,6.300051188707032,0.0,148.26487731933594,-27.772829055786133,9.233684539794922,-27.772829055786133,9.233684539794922,0.8608129620552063,0.46479547023773193,-1.9534739255905151,2.008007764816284,0.3316899761557579,-1.8605607748031616,0.26621101051568985,-0.18582633510231972,0.32755279541015625,-28.914608001708984,8.301492691040039,25.0,25.0,-28.94288087582421,8.275963829027223,-28.930559673847654,8.287089201842505,0.0031998766652997423,0.004509272927261034,0.005529263333000075,162.00170034249982,162.53958129882812,162.53958129882812,161.43695068359375,161.421647645914,3.170393228530884,0.03316899761557579,-0.18605607748031616,0.044368501752614975,-0.03097105585038662,-0.7746188640594482,-0.6324284076690674,0.32755279541015625,1.0,1.0,-0.9999761581420898,-0.9983171820640564,-0.9618210196495056,0.9998457431793213,0.9940372109413147,0.9992823004722595,0.9986999034881592
44,44,/yh/study/new_data_2/model_dataset_new_2_flight/vi/vi_000044.jpg,-193.5978240966797,15.702159881591797,-28.46576419243405,6.333615259488184,0.0,151.6702423095703,-27.772829055786133,9.233684539794922,-27.772829055786133,9.233684539794922,0.8603224158287048,0.4501887261867523,-1.913582444190979,1.9658249616622925,0.31944379210472107,-1.8203891813755035,0.2614898756146431,-0.18638664856553078,0.3159056603908539,-28.875030517578125,8.335892677307129,25.0,25.0,-28.927359797182355,8.291598474769767,-28.904554912872996,8.31090170562024,0.009289192560638648,0.009663584120185621,0.013404251432904716,165.3976022696693,165.95111083984375,165.95111083984375,164.88742065429688,164.8590416442898,3.1707799434661865,0.03194437921047211,-0.18203891813755035,0.04358164593577385,-0.031064441427588463,-0.7753375172615051,-0.6315470933914185,0.3159056603908539,1.0,1.0,-0.999978244304657,-0.997893214225769,-0.9691076874732971,0.999818742275238,0.9930956959724426,0.9993962049484253,0.9987191557884216
45,45,/yh/study/new_data_2/model_dataset_new_2_flight/vi/vi_000045.jpg,-196.71273803710938,15.974347114562988,-28.454366182960953,6.397319199961972,0.0,154.78805541992188,-27.772829055786133,9.233684539794922,-27.772829055786133,9.233684539794922,0.8623477220535278,0.4802555739879608,-1.9393646717071533,1.9979441165924072,0.34833289682865143,-1.84655100107193,0.26384539157152176,-0.18562749400734901,0.32431918382644653,-28.904756546020508,8.312437057495117,25.0,25.0,-28.895265720312356,8.320565289740426,-28.899401783027393,8.317023039638826,0.008184789131377988,0.008717739381110654,0.011957832288591892,168.53070688360012,169.0743408203125,169.0743408203125,167.98280334472656,167.9879472959712,3.170478582382202,0.03483328968286514,-0.184655100107193,0.04397423192858696,-0.030937915667891502,-0.7755917310714722,-0.6312350034713745,0.32431918382644653,1.0,1.0,-0.9999768733978271,-0.9984734654426575,-0.9626065492630005,0.999851405620575,0.9945987462997437,0.999279260635376,0.9987725615501404
46,46,/yh/study/new_data_2/model_dataset_new_2_flight/vi/vi_000046.jpg,-199.96063232421875,16.28047752380371,-28.41914619041298,6.377658291563222,0.0,158.0396728515625,-27.772829055786133,9.233684539794922,-27.772829055786133,9.233684539794922,0.8648161292076111,0.48926252126693726,-1.953005075454712,2.013356924057007,0.3565262258052826,-1.8606255948543549,0.2654726207256317,-0.1847592070698738,0.3272756338119507,-28.914169311523438,8.30292797088623,25.0,25.0,-28.891216993896016,8.325740779019936,-28.901219519290773,8.31579905128738,0.005513934236661311,0.006063118560018432,0.008195418075916916,171.8270854485436,172.33193969726562,172.33193969726562,171.23239135742188,171.2447336776735,3.1701290607452393,0.03565262258052826,-0.18606255948543549,0.044245436787605286,-0.0307932011783123,-0.7749767899513245,-0.6319896578788757,0.3272756338119507,1.0,1.0,-0.9999756813049316,-0.998645544052124,-0.9594502449035645,0.9998580813407898,0.9951431155204773,0.9992216229438782,0.9987763166427612
47,47,/yh/study/new_data_2/model_dataset_new_2_flight/vi/vi_000047.jpg,-203.51315307617188,16.61532211303711,-28.411956983122675,6.362793852898088,0.0,161.5967559814453,-27.772829055786133,9.233684539794922,-27.772829055786133,9.233684539794922,0.8611446619033813,0.44631996750831604,-1.9204800128936768,1.9716604948043823,0.31595632433891296,-1.8278037011623383,0.26072730123996735,-0.18535283580422401,0.3155321478843689,-28.872894287109375,8.33593463897705,25.0,25.0,-28.895705585054113,8.321862169847398,-28.885764515455634,8.32799489387648,0.008168379324077855,0.0077006666135968444,0.011225982677511473,175.40109238240626,175.89527893066406,175.89527893066406,174.83641052246094,174.82392464411961,3.1702208518981934,0.031595632433891296,-0.18278037011623383,0.043454550206661224,-0.030892139300704002,-0.7747519612312317,-0.6322653293609619,0.3155321478843689,1.0,1.0,-0.9999772906303406,-0.9981619119644165,-0.9661450982093811,0.9998208284378052,0.9939265251159668,0.9993590712547302,0.9987601637840271
48,48,/yh/study/new_data_2/model_dataset_new_2_flight/vi/vi_000048.jpg,-206.75160217285156,16.920562744140625,-28.439444540496737,6.4075147748120305,0.0,164.83981323242188,-27.772829055786133,9.233684539794922,-27.772829055786133,9.233684539794922,0.8610151410102844,0.45466354489326477,-1.9125235080718994,1.9658242464065552,0.324581116437912,-1.8195734918117523,0.26016486436128616,-0.1859002411365509,0.3147251605987549,-28.871278762817383,8.339698791503906,25.0,25.0,-28.877596136131555,8.335695560490077,-28.874843050886337,8.33744015206149,0.008903502796659038,0.008166504065030687,0.012081562427694443,178.62180644342158,179.14376831054688,179.14376831054688,178.08717346191406,178.0837202811203,3.170454978942871,0.0324581116437912,-0.18195734918117523,0.04336081072688103,-0.030983373522758484,-0.7755972146987915,-0.6312282681465149,0.3147251605987549,1.0,1.0,-0.999978244304657,-0.9981335401535034,-0.9674135446548462,0.9998252391815186,0.9938108921051025,0.9993789792060852,0.9987725019454956
49,49,/yh/study/new_data_2/model_dataset_new_2_flight/vi/vi_000049.jpg,-210.1930389404297,17.253925323486328,-28.420179502267782,6.424916539681462,0.0,168.28671264648438,-27.772829055786133,9.233684539794922,-27.772829055786133,9.233684539794922,0.8608987927436829,0.4554558992385864,-1.9088771343231201,1.9624607563018799,0.3258557990193367,-1.816137582063675,0.25920023024082184,-0.1854790449142456,0.3130294978618622,-28.8652286529541,8.344353675842285,25.0,25.0,-28.865939548089678,8.34560665612652,-28.865629742920454,8.345060612484403,0.008986226370954333,0.008020700552745497,0.012045077905387204,182.09513958248715,182.596435546875,182.596435546875,181.5465545654297,181.54612966604353,3.1701669692993164,0.03258557990193367,-0.1816137582063675,0.043200038373470306,-0.030913174152374268,-0.7755032777786255,-0.6313436627388,0.3130294978618622,1.0,1.0,-0.9999779462814331,-0.9982555508613586,-0.9665175676345825,0.9998242855072021,0.9942267537117004,0.9993646144866943,0.9988058805465698
50,50,/yh/study/new_data_2/model_dataset_new_2_flight/vi/vi_000050.jpg,-213.3181915283203,17.556650161743164,-28.410173828780707,6.436183507963605,0.0,171.41717529296875,-27.772829055786133,9.233684539794922,-27.772829055786133,9.233684539794922,0.8609133958816528,0.4499155282974243,-1.8976178169250488,1.9502249956130981,0.3211630880832672,-1.8049706518650055,0.2575048953294754,-0.18529439717531204,0.30899477005004883,-28.851133346557617,8.355798721313477,25.0,25.0,-28.8566435165495,8.353081313037148,-28.854242207184214,8.354265548360715,0.009627419331620346,0.008336912767723302,0.012735435504272516,185.2421112710905,185.73194885253906,185.73194885253906,184.6963653564453,184.6933471506846,3.1701507568359375,0.03211630880832672,-0.18049706518650055,0.04291748255491257,-0.030882399529218674,-0.7754932045936584,-0.6313560605049133,0.30899477005004883,1.0,1.0,-0.9999784231185913,-0.99817955493927,-0.9681403636932373,0.9998143911361694,0.9941321015357971,0.999393880367279,0.9988200664520264
51,51,/yh/study/new_data_2/model_dataset_new_2_flight/vi/vi_000051.jpg,-216.74961853027344,17.889041900634766,-28.40432667143621,6.456647697908053,0.0,174.85482788085938,-27.772829055786133,9.233684539794922,-27.772829055786133,9.233684539794922,0.8601294159889221,0.4535093307495117,-1.906233549118042,1.9594379663467407,0.3244798257946968,-1.8136468529701233,0.258059062063694,-0.1851734295487404,0.3110351264476776,-28.858333587646484,8.350099563598633,25.0,25.0,-28.844614787852592,8.362602461128438,-28.85059338424328,8.357153749931552,0.008031026140560008,0.006882008491476682,0.010576361460687477,188.6919410112608,189.17489624023438,189.17489624023438,188.13327026367188,188.14064032671408,3.169985771179199,0.03244798257946968,-0.18136468529701233,0.04300984367728233,-0.030862238258123398,-0.7755497694015503,-0.6312864422798157,0.3110351264476776,1.0,1.0,-0.9999780654907227,-0.9983122944831848,-0.9662856459617615,0.9998219013214111,0.9944766163825989,0.9993688464164734,0.9988300800323486
52,52,/yh/study/new_data_2/model_dataset_new_2_flight/vi/vi_000052.jpg,-219.85296630859375,18.18168067932129,-28.397084027416735,6.450920182187058,0.0,177.9639434814453,-27.772829055786133,9.233684539794922,-27.772829055786133,9.233684539794922,0.8624469637870789,0.47020667791366577,-1.9326063394546509,1.9889850616455078,0.33931292593479156,-1.8401314318180084,0.2617875784635544,-0.18494987860321999,0.31863969564437866,-28.88455581665039,8.328105926513672,25.0,25.0,-28.842562358102718,8.364035758423029,-28.860862934208313,8.348377685807458,0.003144441869215227,0.0027010203673142504,0.0041452413311555405,191.8149253887847,192.2884521484375,192.2884521484375,191.2224578857422,191.24507156822153,3.169825315475464,0.033931292593479156,-0.18401314318180084,0.043631263077259064,-0.03082497976720333,-0.7753282189369202,-0.6315585970878601,0.31863969564437866,1.0,1.0,-0.9999767541885376,-0.9985590577125549,-0.961901068687439,0.9998421669006348,0.9950754046440125,0.9992886185646057,0.9988143444061279
53,53,/yh/study/new_data_2/model_dataset_new_2_flight/vi/vi_000053.jpg,-223.26548767089844,18.50347328186035,-28.390656219041745,6.41577131468784,0.0,181.38314819335938,-27.772829055786133,9.233684539794922,-27.772829055786133,9.233684539794922,0.8592585325241089,0.4362850785255432,-1.885407567024231,1.935227632522583,0.3086566925048828,-1.7929063737392426,0.2552568018436432,-0.18500257283449173,0.30348527431488037,-28.831283569335938,8.370686531066895,25.0,25.0,-28.8577184923391,8.351078706174773,-28.8461982618795,8.359623715424155,0.006220551421249436,0.004982692133033201,0.00797009917610812,195.24935972298792,195.71231079101562,195.71231079101562,194.69805908203125,194.68373783738167,3.1701784133911133,0.03086566925048828,-0.17929063737392426,0.042542800307273865,-0.030833762139081955,-0.7750362157821655,-0.6319167017936707,0.30348527431488037,1.0,1.0,-0.9999788403511047,-0.9979351162910461,-0.9709134697914124,0.9997894167900085,0.993713915348053,0.9994431734085083,0.99881511926651
54,54,/yh/study/new_data_2/model_dataset_new_2_flight/vi/vi_000054.jpg,-226.6659393310547,18.824125289916992,-28.409913168452796,6.474216055267666,0.0,184.79055786132812,-27.772829055786133,9.233684539794922,-27.772829055786133,9.233684539794922,0.8611481189727783,0.4617064595222473,-1.9132702350616455,1.9681910276412964,0.33214662224054337,-1.8206050992012024,0.2591197192668915,-0.1853303499519825,0.3136105537414551,-28.867658615112305,8.343196868896484,25.0,25.0,-28.83997771045825,8.364606407557188,-28.85204093458441,8.355276218875515,0.002999452755476892,0.0024913632810082474,0.0038991804049433388,198.6403085174063,199.1241912841797,199.1241912841797,198.07577514648438,198.09072466847437,3.170095920562744,0.03321466222405434,-0.18206050992012024,0.04318661987781525,-0.03088839165866375,-0.7757883071899414,-0.6309931874275208,0.3136105537414551,1.0,1.0,-0.9999779462814331,-0.9983963370323181,-0.9653898477554321,0.9998313188552856,0.994655966758728,0.9993492364883423,0.9988282918930054
55,55,/yh/study/new_data_2/model_dataset_new_2_flight/vi/vi_000055.jpg,-229.90402221679688,19.161306381225586,-28.39033445271042,6.442005944698321,0.0,188.03639221191406,-27.772829055786133,9.233684539794922,-27.772829055786133,9.233684539794922,0.8617079257965088,0.4513132572174072,-1.9058475494384766,1.9585552215576172,0.3222331032156944,-1.8133544921875,0.25816038250923157,-0.1849861890077591,0.3103233575820923,-28.855464935302734,8.351648330688477,25.0,25.0,-28.84904148182893,8.357767582156523,-28.851840796370375,8.355100837595032,0.002251985226048009,0.0017792943300260463,0.002870074175208951,201.91470218851416,202.37484741210938,202.37484741210938,201.3389434814453,201.34237937444587,3.16988468170166,0.03222331032156944,-0.18133544921875,0.04302673041820526,-0.030831031501293182,-0.7752740979194641,-0.6316249966621399,0.3103233575820923,1.0,1.0,-0.9999778270721436,-0.9983247518539429,-0.966122031211853,0.9998193383216858,0.9945424199104309,0.9993653297424316,0.9988295435905457
56,56,/yh/study/new_data_2/model_dataset_new_2_flight/vi/vi_000056.jpg,-233.15289306640625,19.499608993530273,-28.400527501900065,6.449253250903652,0.0,191.2933807373047,-27.772829055786133,9.233684539794922,-27.772829055786133,9.233684539794922,0.8602994084358215,0.44385015964508057,-1.8878283500671387,1.9393037557601929,0.3158990666270256,-1.7951849102973938,0.2559021860361099,-0.18528689816594124,0.3047582507133484,-28.83642578125,8.367928504943848,25.0,25.0,-28.849588811144326,8.356880131925058,-28.843852416984557,8.361694967336716,0.0037837060480381125,0.0030649423258031507,0.004869322634459522,205.16784102112663,205.63648986816406,205.63648986816406,204.61947631835938,204.6124072971674,3.1701807975769043,0.03158990666270256,-0.17951849102973938,0.042650364339351654,-0.03088114969432354,-0.7755482792854309,-0.6312882900238037,0.3047582507133484,1.0,1.0,-0.9999790191650391,-0.9980435371398926,-0.9701275825500488,0.9998016953468323,0.9939098954200745,0.9994320273399353,0.9988245964050293
57,57,/yh/study/new_data_2/model_dataset_new_2_flight/vi/vi_000057.jpg,-236.7150115966797,19.870529174804688,-28.400002257339477,6.473866607956351,0.0,194.86477661132812,-27.772829055786133,9.233684539794922,-27.772829055786133,9.233684539794922,0.8609447479248047,0.44577616453170776,-1.8663740158081055,1.9188716411590576,0.31889956444501877,-1.7736750841140747,0.253753200173378,-0.1853978969156742,0.2992301285266876,-28.817405700683594,8.383968353271484,25.0,25.0,-28.84006871093652,8.364759909662519,-28.830192264502735,8.37313087019526,0.006420895583583304,0.005300139941403709,0.008325826294953702,208.7453321250068,209.21275329589844,209.21275329589844,208.21469116210938,208.20251745967602,3.170210361480713,0.03188995644450188,-0.17736750841140747,0.04229220002889633,-0.0308996494859457,-0.7757513523101807,-0.6310387849807739,0.2992301285266876,1.0,1.0,-0.9999797940254211,-0.9979264736175537,-0.9726079702377319,0.9997888803482056,0.9937220811843872,0.9994668960571289,0.9988476634025574
58,58,/yh/study/new_data_2/model_dataset_new_2_flight/vi/vi_000058.jpg,-241.94894409179688,20.40029525756836,-28.384416099971027,6.506756837623348,0.0,200.1124725341797,-27.772829055786133,9.233684539794922,-27.772829055786133,9.233684539794922,0.8626730442047119,0.4563491940498352,-1.8907194137573242,1.9450126886367798,0.32832037657499313,-1.7982806265354156,0.25605762004852295,-0.18487772718071938,0.30596718192100525,-28.84089469909668,8.364800453186035,25.0,25.0,-28.82377136891915,8.378431010136664,-28.83123364561492,8.372490869613268,0.004428332960441291,0.0037140151613026763,0.005779622948507703,214.01597610037868,214.46701049804688,214.46701049804688,213.4476318359375,213.45684946662536,3.169771432876587,0.03283203765749931,-0.17982806265354156,0.04267627000808716,-0.030812954530119896,-0.7757294774055481,-0.6310655474662781,0.30596718192100525,1.0,1.0,-0.9999783039093018,-0.9984041452407837,-0.9669719338417053,0.9998189806938171,0.9948419332504272,0.999373733997345,0.9988744258880615
59,59,/yh/study/new_data_2/model_dataset_new_2_flight/vi/vi_000059.jpg,-246.72323608398438,20.88353729248047,-28.374884459015664,6.481771379487492,0.0,204.89990234375,-27.772829055786133,9.233684539794922,-27.772829055786133,9.233684539794922,0.867809534072876,0.5300236940383911,-1.9395644664764404,2.0106804370880127,0.3999219462275505,-1.8485595285892487,0.2602034881711006,-0.18201005458831787,0.3202022910118103,-28.89315414428711,8.327542304992676,25.0,25.0,-28.82680531265448,8.37620488477457,-28.85571985993883,8.354997933130374,-0.003292373270745639,-0.0019486238588985747,0.0038258145142425694,218.82279021791496,219.26011657714844,219.26011657714844,218.191650390625,218.22744768730064,3.1713144779205322,0.03999219462275505,-0.18485595285892487,0.04336724802851677,-0.03033500909805298,-0.77751225233078,-0.6288678646087646,0.3202022910118103,1.0,1.0,-0.9999754428863525,-0.9989794492721558,-0.9640927910804749,0.9998833537101746,0.9963873624801636,0.999164342880249,0.9989311695098877
60,60,/yh/study/new_data_2/model_dataset_new_2_flight/vi/vi_000060.jpg,-250.1058349609375,21.189523696899414,-28.32569616962573,6.415433377246966,0.0,208.2908935546875,-27.772829055786133,9.233684539794922,-27.772829055786133,9.233684539794922,0.870682418346405,0.521517813205719,-1.955084204673767,2.0234463214874268,0.3913084417581558,-1.8645703792572021,0.26041875779628754,-0.18102774024009705,0.3231513798236847,-28.902507781982422,8.318005561828613,25.0,25.0,-28.859012233209576,8.353049309271475,-28.877967414042523,8.33777738861328,-0.008353748824407236,-0.006026502437745716,0.010300672359289968,222.27168894635855,222.65423583984375,222.65423583984375,221.57749938964844,221.60085009430594,3.171211004257202,0.03913084417581558,-0.18645703792572021,0.043403126299381256,-0.030171290040016174,-0.7768488526344299,-0.6296871304512024,0.3231513798236847,1.0,1.0,-0.9999716281890869,-0.9990423917770386,-0.9624296426773071,0.9998878240585327,0.9964878559112549,0.9990403652191162,0.9989575147628784
61,61,/yh/study/new_data_2/model_dataset_new_2_flight/vi/vi_000061.jpg,-253.18551635742188,21.468109130859375,-28.356449593386223,6.382693139236029,0.0,211.37835693359375,-27.772829055786133,9.233684539794922,-27.772829055786133,9.233684539794922,0.8672811388969421,0.5206290483474731,-1.9586833715438843,2.026695728302002,0.3885028511285782,-1.867554634809494,0.2642523720860481,-0.18225742131471634,0.3283727765083313,-28.91852378845215,8.300457000732422,25.0,25.0,-28.88632116286693,8.331750886175534,-28.900354934332864,8.318113139917001,-0.012101019211819612,-0.00966802694380593,0.015488880235542684,225.33459352178377,225.7444610595703,225.7444610595703,224.65322875976562,224.67032743364865,3.170720338821411,0.03885028511285782,-0.1867554634809494,0.044042062014341354,-0.030376236885786057,-0.7753347754478455,-0.6315503716468811,0.3283727765083313,1.0,1.0,-0.9999728202819824,-0.9989029169082642,-0.9598112106323242,0.9998806715011597,0.9958751797676086,0.9990805983543396,0.9988536834716797
62,62,/yh/study/new_data_2/model_dataset_new_2_flight/vi/vi_000062.jpg,-256.56805419921875,21.774091720581055,-28.37972589716126,6.359429794450149,0.0,214.7696075439453,-27.772829055786133,9.233684539794922,-27.772829055786133,9.233684539794922,0.8722156286239624,0.5390990972518921,-1.9616079330444336,2.0343387126922607,0.40839675813913345,-1.8708859384059906,0.26140476018190384,-0.18144399672746658,0.3276089131832123,-28.919376373291016,8.306962966918945,25.0,25.0,-28.912455953544683,8.308445112973194,-28.915471843938818,8.307799199833303,-0.012906316404598868,-0.009840497415327252,0.016229861136703546,228.70838413924506,229.13864135742188,229.13864135742188,228.0466766357422,228.05051915591395,3.1728763580322266,0.040839675813913345,-0.18708859384059906,0.043567460030317307,-0.03024066612124443,-0.7777208685874939,-0.628609836101532,0.3276089131832123,1.0,1.0,-0.9999735355377197,-0.9989491105079651,-0.9666948318481445,0.9998971819877625,0.9960716366767883,0.9990900754928589,0.9989269971847534
63,63,/yh/study/new_data_2/model_dataset_new_2_flight/vi/vi_000063.jpg,-259.78179931640625,22.02918815612793,-28.376372705708732,6.346191263063579,0.0,217.99046325683594,-27.772829055786133,9.233684539794922,-27.772829055786133,9.233684539794922,0.8751797676086426,0.5531179904937744,-1.9478341341018677,2.0248451232910156,0.4247039183974266,-1.8577338755130768,0.2568281963467598,-0.18020058050751686,0.32314106822013855,-28.9055233001709,8.32181167602539,25.0,25.0,-28.928378160343417,8.297958702417976,-28.918418106505626,8.3083537299757,-0.010246802182496285,-0.007064837355737993,0.012446239666270356,231.93625817544523,232.36155700683594,232.36155700683594,231.2828369140625,231.27075491946184,3.1738290786743164,0.04247039183974266,-0.18577338755130768,0.04280469939112663,-0.030033430084586143,-0.7789473533630371,-0.6270893216133118,0.32314106822013855,1.0,1.0,-0.9999702572822571,-0.9990826845169067,-0.9707662463188171,0.9999042749404907,0.9966722130775452,0.9989742636680603,0.9990563988685608
64,64,/yh/study/new_data_2/model_dataset_new_2_flight/vi/vi_000064.jpg,-262.99114990234375,22.283937454223633,-28.36530008993482,6.3605195642088646,0.0,221.20701599121094,-27.772829055786133,9.233684539794922,-27.772829055786133,9.233684539794922,0.8757997751235962,0.5581174492835999,-1.9387167692184448,2.01745343208313,0.4305300861597061,-1.848922073841095,0.2551747262477875,-0.17958956211805344,0.3221129775047302,-28.901546478271484,8.324250221252441,25.0,25.0,-28.928664908688123,8.301288892619962,-28.916846808515675,8.311295344973658,-0.0070911560385364175,-0.004392933892076513,0.008341604290724057,235.16556856286405,235.58006286621094,235.58006286621094,234.50546264648438,234.4909680486105,3.173780918121338,0.04305300861597061,-0.1848922073841095,0.04252912104129791,-0.02993159368634224,-0.7786902189254761,-0.6274086236953735,0.3221129775047302,1.0,1.0,-0.9999688863754272,-0.999134361743927,-0.9708570837974548,0.999903678894043,0.9968850612640381,0.9989112615585327,0.9991007447242737
65,65,/yh/study/new_data_2/model_dataset_new_2_flight/vi/vi_000065.jpg,-266.5252380371094,22.56446075439453,-28.358729359232075,6.372578490073536,0.0,224.74911499023438,-27.772829055786133,9.233684539794922,-27.772829055786133,9.233684539794922,0.8763688802719116,0.5611345767974854,-1.9370429515838623,2.0166823863983154,0.433761365711689,-1.8472351133823395,0.2547464668750763,-0.17961569130420685,0.32096120715141296,-28.89766502380371,8.327693939208984,25.0,25.0,-28.923937964554213,8.306902411081582,-28.912488325292507,8.31596327332076,-0.004033895610995668,-0.0019735200633907105,0.004490778912506804,238.71628119395425,239.12428283691406,239.12428283691406,238.0536651611328,238.03957340341267,3.1739726066589355,0.0433761365711689,-0.18472351133823395,0.04245774447917938,-0.02993594855070114,-0.7787971496582031,-0.6272759437561035,0.32096120715141296,1.0,1.0,-0.9999687075614929,-0.9991394877433777,-0.9718198776245117,0.9999043941497803,0.9969393610954285,0.9989073276519775,0.9991089105606079
66,66,/yh/study/new_data_2/model_dataset_new_2_flight/vi/vi_000066.jpg,-269.7339172363281,22.84096336364746,-28.35135372614328,6.378920314286317,0.0,227.96600341796875,-27.772829055786133,9.233684539794922,-27.772829055786133,9.233684539794922,0.8746721744537354,0.5604197978973389,-1.9322938919067383,2.0119218826293945,0.43332256376743317,-1.8426565825939178,0.2541945353150368,-0.17927462607622147,0.3207034766674042,-28.896337509155273,8.32789421081543,25.0,25.0,-28.916522220903502,8.313989753257369,-28.9077258067406,8.320049258536255,-0.001685094193780979,-0.00035552273822005,0.0017221901344816285,241.94325952195368,242.34339904785156,242.34339904785156,241.27447509765625,241.26357251961673,3.173759698867798,0.04333225637674332,-0.18426565825939178,0.04236575588583946,-0.02987910434603691,-0.7785028219223022,-0.6276412010192871,0.3207034766674042,1.0,1.0,-0.9999685883522034,-0.999156653881073,-0.9712309837341309,0.9999030828475952,0.9969955086708069,0.9988983869552612,0.9991176128387451
67,67,/yh/study/new_data_2/model_dataset_new_2_flight/vi/vi_000067.jpg,-272.9421081542969,23.117422103881836,-28.34730597531565,6.387755362904226,0.0,231.1824951171875,-27.772829055786133,9.233684539794922,-27.772829055786133,9.233684539794922,0.8750515580177307,0.5578417181968689,-1.9314223527908325,2.0103681087493896,0.4306001216173172,-1.8418091535568237,0.2544832304120064,-0.17922649160027504,0.3209362328052521,-28.896684646606445,8.326656341552734,25.0,25.0,-28.909410900934382,8.319693735798035,-28.90386485176572,8.322728010680692,-0.0002041989214510982,0.00045468344496114974,0.0004984317753148676,245.1662680758492,245.56207275390625,245.56207275390625,244.49322509765625,244.4862923918165,3.1735141277313232,0.04306001216173172,-0.18418091535568237,0.042413871735334396,-0.029871081933379173,-0.7781785726547241,-0.628042995929718,0.3209362328052521,1.0,1.0,-0.9999690055847168,-0.9991517663002014,-0.9704239964485168,0.9999014735221863,0.9969533681869507,0.9989115595817566,0.9991071820259094
68,68,/yh/study/new_data_2/model_dataset_new_2_flight/vi/vi_000068.jpg,-276.4721984863281,23.421621322631836,-28.3460231149424,6.39130561132373,0.0,234.7218475341797,-27.772829055786133,9.233684539794922,-27.772829055786133,9.233684539794922,0.8748196959495544,0.5547784566879272,-1.9357025623321533,2.013634443283081,0.4271555319428444,-1.8459729850292206,0.25524580478668213,-0.1794590838253498,0.32145631313323975,-28.898386001586914,8.32503890991211,25.0,25.0,-28.904069050687173,8.323182694125652,-28.9015924013192,8.323991625312635,0.000457111180337253,0.0006706826786519453,0.000811643940797358,248.70993256735545,249.10374450683594,249.10374450683594,248.03366088867188,248.03052920916014,3.173383951187134,0.04271555319428444,-0.18459729850292206,0.04254096746444702,-0.029909847304224968,-0.7780961394309998,-0.6281452775001526,0.32145631313323975,1.0,1.0,-0.9999692440032959,-0.9991368055343628,-0.9698501825332642,0.9999009370803833,0.9968807697296143,0.998924732208252,0.9990897178649902
69,69,/yh/study/new_data_2/model_dataset_new_2_flight/vi/vi_000069.jpg,-279.8583984375,23.757869720458984,-28.346813966983014,6.388289098370739,0.0,238.1188201904297,-27.772829055786133,9.233684539794922,-27.772829055786133,9.233684539794922,0.8755266070365906,0.5546255111694336,-1.936446189880371,2.0143070220947266,0.4273068532347679,-1.8467484414577484,0.2546372562646866,-0.17939550429582596,0.32109779119491577,-28.89739227294922,8.326375007629395,25.0,25.0,-28.90113529013886,8.324662307991288,-28.899504098679223,8.325408695432504,0.0008926687542749133,0.0008699816028786769,0.0012464852563131572,252.11064922739226,252.50364685058594,252.50364685058594,251.43499755859375,251.43294832032728,3.1735291481018066,0.04273068532347679,-0.18467484414577484,0.0424395427107811,-0.029899250715970993,-0.7782763838768005,-0.6279218792915344,0.32109779119491577,1.0,1.0,-0.9999690651893616,-0.9991501569747925,-0.9703282117843628,0.999901294708252,0.9969565272331238,0.9989231824874878,0.9991039633750916
70,70,/yh/study/new_data_2/model_dataset_new_2_flight/vi/vi_000070.jpg,-282.95196533203125,24.0650577545166,-28.344878617312112,6.3889625018268426,0.0,241.22238159179688,-27.772829055786133,9.233684539794922,-27.772829055786133,9.233684539794922,0.8749327063560486,0.5487549901008606,-1.9417366981506348,2.017789363861084,0.42096730321645737,-1.8520067632198334,0.25557542592287064,-0.17945978790521622,0.3229663670063019,-28.903295516967773,8.320301055908203,25.0,25.0,-28.898611429924948,8.326278677035383,-28.900652735746785,8.32367365439253,0.00034760324024739743,0.00017439351867807261,0.0003888973026229536,255.2199305476331,255.6097869873047,255.6097869873047,254.53610229492188,254.53852479591902,3.173100233078003,0.04209673032164574,-0.18520067632198334,0.04259590432047844,-0.02990996465086937,-0.7778353095054626,-0.6284681558609009,0.3229663670063019,1.0,1.0,-0.9999692440032959,-0.9991375803947449,-0.9683572053909302,0.9998993277549744,0.9968593716621399,0.998924732208252,0.9990843534469604
71,71,/yh/study/new_data_2/model_dataset_new_2_flight/vi/vi_000071.jpg,-286.3374328613281,24.40123176574707,-28.351897719568893,6.381936997220089,0.0,244.6189422607422,-27.772829055786133,9.233684539794922,-27.772829055786133,9.233684539794922,0.8738879561424255,0.5426188707351685,-1.951460361480713,2.0254955291748047,0.4140755906701088,-1.8615169823169708,0.2570865824818611,-0.17988671734929085,0.32530370354652405,-28.911144256591797,8.313281059265137,25.0,25.0,-28.90030513250654,8.32384804791121,-28.905028778095648,8.319242997824542,-0.0009136954263067429,-0.0010552380072595903,0.0013958390251096477,258.61405864015774,259.00909423828125,259.00909423828125,257.9284973144531,257.9342416873034,3.1728689670562744,0.04140755906701088,-0.18615169823169708,0.04284776374697685,-0.02998111955821514,-0.7776088714599609,-0.6287484765052795,0.32530370354652405,1.0,1.0,-0.999970018863678,-0.999100387096405,-0.9668846130371094,0.9998981356620789,0.9966738224029541,0.9989559650421143,0.9990482330322266
72,72,/yh/study/new_data_2/model_dataset_new_2_flight/vi/vi_000072.jpg,-289.56787109375,24.758047103881836,-28.36240989618461,6.367782656832926,0.0,247.86166381835938,-27.772829055786133,9.233684539794922,-27.772829055786133,9.233684539794922,0.8691967725753784,0.5312867164611816,-1.9644907712936401,2.035064935684204,0.40165167301893234,-1.8742647767066956,0.25927014648914337,-0.18045220524072647,0.32921308279037476,-28.923885345458984,8.30105972290039,25.0,25.0,-28.905942473521954,8.318187759817283,-28.91376190313773,8.310723431943904,-0.003001624328154825,-0.0030483483318611915,0.004278104271722677,261.85204751130976,262.25494384765625,262.25494384765625,261.16302490234375,261.1725083042262,3.1721575260162354,0.040165167301893234,-0.18742647767066956,0.043211691081523895,-0.03007536754012108,-0.7769752144813538,-0.62953120470047,0.32921308279037476,1.0,1.0,-0.9999707937240601,-0.9990519285202026,-0.963347852230072,0.9998940825462341,0.9964185953140259,0.9989874362945557,0.9989944100379944
73,73,/yh/study/new_data_2/model_dataset_new_2_flight/vi/vi_000073.jpg,-292.791015625,25.11405372619629,-28.382475156874225,6.346232552616845,0.0,251.09722900390625,-27.772829055786133,9.233684539794922,-27.772829055786133,9.233684539794922,0.8653008341789246,0.5126723051071167,-1.9666938781738281,2.032416820526123,0.38012389093637466,-1.8753896653652191,0.26509691029787064,-0.18260858952999115,0.33242103457450867,-28.931385040283203,8.287402153015137,25.0,25.0,-28.916763527465886,8.307675083612043,-28.9231355224705,8.298840224038596,-0.004703062052681741,-0.005407415367895899,0.007166514747932341,265.07377724718066,265.4935607910156,265.4935607910156,264.3955993652344,264.40311941224525,3.170267343521118,0.038012389093637466,-0.1875389665365219,0.04418281838297844,-0.03043476492166519,-0.7744899988174438,-0.6325861811637878,0.33242103457450867,1.0,1.0,-0.9999728202819824,-0.9988529682159424,-0.9571384191513062,0.999875545501709,0.9956192970275879,0.999085545539856,0.9988238215446472
74,74,/yh/study/new_data_2/model_dataset_new_2_flight/vi/vi_000074.jpg,-296.3150329589844,25.5032958984375,-28.41046317638519,6.332146263908381,0.0,254.63507080078125,-27.772829055786133,9.233684539794922,-27.772829055786133,9.233684539794922,0.8609369397163391,0.45043763518333435,-1.9442832469940186,1.9957784414291382,0.3184530511498451,-1.8515275418758392,0.26396919786930084,-0.18551162257790565,0.3217746913433075,-28.89388084411621,8.317220687866211,25.0,25.0,-28.92783858452318,8.2934328086707,-28.913039941253867,8.303799468352086,-0.0007515570825750726,-0.0026393300435239944,0.002744248736360668,268.5896339934009,269.03460693359375,269.03460693359375,267.9728088378906,267.9545643337745,3.1702840328216553,0.03184530511498451,-0.18515275418758392,0.04399486631155014,-0.030918603762984276,-0.7742146849632263,-0.6329231262207031,0.3217746913433075,1.0,1.0,-0.9999761581420898,-0.9982181787490845,-0.9638967514038086,0.9998335838317871,0.9938728213310242,0.9993099570274353,0.9987068772315979
75,75,/yh/study/new_data_2/model_dataset_new_2_flight/vi/vi_000075.jpg,-299.6627502441406,25.858945846557617,-28.46260229116937,6.359516115187294,0.0,257.9954528808594,-27.772829055786133,9.233684539794922,-27.772829055786133,9.233684539794922,0.8589385151863098,0.44770896434783936,-1.9031811952590942,1.955132246017456,0.31755808740854263,-1.8098503351211548,0.26030174642801285,-0.18666166439652443,0.3122563660144806,-28.86254119873047,8.346563339233398,25.0,25.0,-28.913791498336444,8.301160138308562,-28.891456829061493,8.32094666608453,0.005212202908089894,0.0026440301554491977,0.0058444806970359186,271.9002537872338,272.3977355957031,272.3977355957031,271.3658447265625,271.33867168711714,3.1708362102508545,0.03175580874085426,-0.18098503351211548,0.04338362440466881,-0.031110277399420738,-0.775510847568512,-0.631334125995636,0.3122563660144806,1.0,1.0,-0.9999788999557495,-0.9977126717567444,-0.9712390303611755,0.9998093843460083,0.9927077889442444,0.9994332194328308,0.9987174272537231
76,76,/yh/study/new_data_2/model_dataset_new_2_flight/vi/vi_000076.jpg,-303.0234375,26.21597671508789,-28.443747868438944,6.417765498765114,0.0,261.3690185546875,-27.772829055786133,9.233684539794922,-27.772829055786133,9.233684539794922,0.859362781047821,0.45459258556365967,-1.8917895555496216,1.9456417560577393,0.32560303807258606,-1.79872527718544,0.2579791098833084,-0.1861286200582981,0.30943503975868225,-28.853132247924805,8.35511589050293,25.0,25.0,-28.886244626153402,8.32359069623998,-28.87181438823619,8.337329245928565,0.009065336996938306,0.00631247099752765,0.011046611469708083,275.2925264614543,275.77398681640625,275.77398681640625,274.75146484375,274.7339776768448,3.170494556427002,0.032560303807258606,-0.179872527718544,0.042996518313884735,-0.03102143667638302,-0.775825023651123,-0.6309480667114258,0.30943503975868225,1.0,1.0,-0.9999788999557495,-0.9979825019836426,-0.9700927138328552,0.9998127222061157,0.9934848546981812,0.9994157552719116,0.9987911581993103
77,77,/yh/study/new_data_2/model_dataset_new_2_flight/vi/vi_000077.jpg,-306.37432861328125,26.571962356567383,-28.41722179522195,6.445539658713976,0.0,264.7328796386719,-27.772829055786133,9.233684539794922,-27.772829055786133,9.233684539794922,0.8583361506462097,0.4459558129310608,-1.844793677330017,1.89793062210083,0.3199104592204094,-1.7518772184848785,0.2520906776189804,-0.18583296239376068,0.2946309745311737,-28.801212310791016,8.396857261657715,25.0,25.0,-28.862749051239252,8.343641716926093,-28.835931593453903,8.36683283192454,0.016226082465016306,0.0125049174610969,0.02048557328634851,278.68481501739325,279.1405029296875,279.1405029296875,278.1675109863281,278.13483881265995,3.1703808307647705,0.03199104592204094,-0.17518772184848785,0.042015112936496735,-0.030972160398960114,-0.7756463289260864,-0.6311677694320679,0.2946309745311737,1.0,1.0,-0.9999805688858032,-0.9975650310516357,-0.9760830998420715,0.9997627139091492,0.992975652217865,0.9995131492614746,0.9988393187522888
78,78,/yh/study/new_data_2/model_dataset_new_2_flight/vi/vi_000078.jpg,-309.93170166015625,26.87871551513672,-28.389975795424004,6.5220391322427815,0.0,268.3008117675781,-27.772829055786133,9.233684539794922,-27.772829055786133,9.233684539794922,0.8583898544311523,0.4472363591194153,-1.8442590236663818,1.897712230682373,0.32200951129198074,-1.7516988515853882,0.25045372545719147,-0.18512027710676193,0.2933522164821625,-28.79705238342285,8.400864601135254,25.0,25.0,-28.819705510988886,8.379337749385638,-28.809833371389303,8.388719062627805,0.018862121998061178,0.015009897493923289,0.024105531917960825,282.2767040976813,282.7100524902344,282.7100524902344,281.7412109375,281.72927572224484,3.1700265407562256,0.032200951129198074,-0.17516988515853882,0.04174228757619858,-0.030853379517793655,-0.7758772969245911,-0.6308837532997131,0.2933522164821625,1.0,1.0,-0.9999803900718689,-0.9979419112205505,-0.9739346504211426,0.9997763633728027,0.9939111471176147,0.9994899034500122,0.9989029765129089
79,79,/yh/study/new_data_2/model_dataset_new_2_flight/vi/vi_000079.jpg,-313.1907958984375,27.159746170043945,-28.362596997368726,6.544460072489036,0.0,271.56964111328125,-27.772829055786133,9.233684539794922,-27.772829055786133,9.233684539794922,0.8588007688522339,0.4411677420139313,-1.84171462059021,1.8938167095184326,0.31671948730945587,-1.7495335638523102,0.2488965466618538,-0.18436219543218613,0.2900528013706207,-28.78533172607422,8.409982681274414,25.0,25.0,-28.79097124939124,8.403728960121729,-28.788513568380154,8.406454306017398,0.01951836720605129,0.015737614059287735,0.02507267745314308,285.57327065065255,285.9803466796875,285.9803466796875,285.0228271484375,285.0199013231936,3.16973614692688,0.03167194873094559,-0.17495335638523102,0.04148275777697563,-0.03072703257203102,-0.7757222652435303,-0.6310746669769287,0.2900528013706207,1.0,1.0,-0.9999802708625793,-0.9980740547180176,-0.9733914136886597,0.9997711777687073,0.9943966865539551,0.9994876980781555,0.998935878276825
80,80,/yh/study/new_data_2/model_dataset_new_2_flight/vi/vi_000080.jpg,-316.4438171386719,27.44025421142578,-28.34734580773977,6.564739644448995,0.0,274.8323974609375,-27.772829055786133,9.233684539794922,-27.772829055786133,9.233684539794922,0.8572409749031067,0.4360939860343933,-1.8217332363128662,1.873203158378601,0.31329046934843063,-1.729768067598343,0.24560699611902237,-0.18393035978078842,0.2838066816329956,-28.76335906982422,8.427513122558594,25.0,25.0,-28.768995201174103,8.422191920076687,-28.76653899836831,8.424510878180193,0.020174217706536095,0.016356817746052625,0.025971995434473198,288.8518026631834,289.24456787109375,289.24456787109375,288.30804443359375,288.305072540754,3.169686794281006,0.03132904693484306,-0.1729768067598343,0.040934499353170395,-0.030655059963464737,-0.775590181350708,-0.6312368512153625,0.2838066816329956,1.0,1.0,-0.9999811053276062,-0.9979376196861267,-0.9756438732147217,0.9997441172599792,0.9943029284477234,0.999531090259552,0.9989686608314514
81,81,/yh/study/new_data_2/model_dataset_new_2_flight/vi/vi_000081.jpg,-321.592041015625,27.871477127075195,-28.33044503096037,6.602777630691456,0.0,279.9955749511719,-27.772829055786133,9.233684539794922,-27.772829055786133,9.233684539794922,0.8578569889068604,0.43541833758354187,-1.812820315361023,1.8643783330917358,0.3134208917617798,-1.7210441827774048,0.24399489909410477,-0.18355217948555946,0.2803186774253845,-28.751270294189453,8.43752670288086,25.0,25.0,-28.746364780661775,8.440867695926245,-28.74850258323282,8.43941170493122,0.019603385818040723,0.01596804185973878,0.02528381095415266,294.03183714989115,294.40972900390625,294.40972900390625,293.4848937988281,293.4875519816376,3.1694657802581787,0.03134208917617798,-0.17210441827774048,0.04066581651568413,-0.03059202991425991,-0.7756580710411072,-0.6311532258987427,0.2803186774253845,1.0,1.0,-0.9999812245368958,-0.9980459213256836,-0.9756060242652893,0.9997408390045166,0.9946458339691162,0.9995348453521729,0.9990023970603943
82,82,/yh/study/new_data_2/model_dataset_new_2_flight/vi/vi_000082.jpg,-326.2784423828125,28.264019012451172,-28.31308424192399,6.626591432411036,0.0,284.6956481933594,-27.772829055786133,9.233684539794922,-27.772829055786133,9.233684539794922,0.85894376039505,0.434023380279541,-1.8330625295639038,1.883744716644287,0.31125400215387344,-1.7415137588977814,0.24553877860307693,-0.18309757858514786,0.2837890386581421,-28.76340103149414,8.427691459655762,25.0,25.0,-28.72889919741478,8.45537974679096,-28.743934954463345,8.443313305409955,0.015588567187340195,0.01274608412882847,0.02013618850660155,298.7499505009322,299.1116027832031,299.1116027832031,298.17559814453125,298.19396956570984,3.169055938720703,0.031125400215387344,-0.17415137588977814,0.04092312976717949,-0.030516263097524643,-0.7756721377372742,-0.6311360597610474,0.2837890386581421,1.0,1.0,-0.9999801516532898,-0.9983633756637573,-0.971878707408905,0.9997656345367432,0.9953458905220032,0.9994821548461914,0.9990137219429016
83,83,/yh/study/new_data_2/model_dataset_new_2_flight/vi/vi_000083.jpg,-329.66363525390625,28.562585830688477,-28.309911563007933,6.6102507572196,0.0,288.091552734375,-27.772829055786133,9.233684539794922,-27.772829055786133,9.233684539794922,0.8587640523910522,0.4354945421218872,-1.865138292312622,1.9153058528900146,0.31084297224879265,-1.773531585931778,0.24930314719676971,-0.1832135058939457,0.2916155159473419,-28.790573120117188,8.405282974243164,25.0,25.0,-28.728346387276005,8.456059389538783,-28.75546454090152,8.433931237092569,0.008347530500312235,0.006837467860483821,0.010790376832937404,302.1522328190678,302.50897216796875,302.50897216796875,301.54754638671875,301.58065245899826,3.168860673904419,0.031084297224879265,-0.1773531585931778,0.04155052453279495,-0.030535584315657616,-0.7755598425865173,-0.6312741041183472,0.2916155159473419,1.0,1.0,-0.9999790191650391,-0.9985124468803406,-0.9679760932922363,0.9997891187667847,0.9955916404724121,0.9994269013404846,0.9989798665046692
84,84,/yh/study/new_data_2/model_dataset_new_2_flight/vi/vi_000084.jpg,-332.744140625,28.834280014038086,-28.319969995054343,6.568792898213818,0.0,291.18182373046875,-27.772829055786133,9.233684539794922,-27.772829055786133,9.233684539794922,0.8578816056251526,0.43238744139671326,-1.8722941875457764,1.9215734004974365,0.3072027862071991,-1.7805276811122894,0.2503693252801895,-0.18353307992219925,0.29418689012527466,-28.79938316345215,8.39777660369873,25.0,25.0,-28.747117010401208,8.440768704953053,-28.76989438441934,8.42203292447308,0.0022655603493547437,0.0018346761627499953,0.002915270196522346,305.23732992580574,305.60052490234375,305.60052490234375,304.63104248046875,304.65882919878527,3.1691653728485107,0.03072027862071991,-0.17805276811122894,0.041728220880031586,-0.030588846653699875,-0.7754359841346741,-0.6314261555671692,0.29418689012527466,1.0,1.0,-0.9999791383743286,-0.9983668923377991,-0.9686967730522156,0.9997872114181519,0.9951526522636414,0.9994409680366516,0.9989423751831055
85,85,/yh/study/new_data_2/model_dataset_new_2_flight/vi/vi_000085.jpg,-336.1232604980469,29.13231086730957,-28.337506935572048,6.54973870339969,0.0,294.5717468261719,-27.772829055786133,9.233684539794922,-27.772829055786133,9.233684539794922,0.8597905039787292,0.4518544375896454,-1.9079186916351318,1.9606952667236328,0.32369405031204224,-1.8158508837223053,0.2563207894563675,-0.18413564935326576,0.3061893880367279,-28.84128189086914,8.363692283630371,25.0,25.0,-28.767628824069988,8.423867600635829,-28.799726526926207,8.397643445574003,-0.006305105897352469,-0.005167646764956144,0.008152234875430823,308.6130954148879,308.9918212890625,308.9918212890625,307.9830322265625,308.0222085590397,3.1691365242004395,0.032369405031204224,-0.18158508837223053,0.04272013157606125,-0.03068927489221096,-0.775447428226471,-0.6314122080802917,0.3061893880367279,1.0,1.0,-0.9999775886535645,-0.998590886592865,-0.9636459946632385,0.9998220205307007,0.9954941272735596,0.999346137046814,0.9988933801651001
86,86,/yh/study/new_data_2/model_dataset_new_2_flight/vi/vi_000086.jpg,-339.6257019042969,29.462242126464844,-28.34787208188598,6.489724737175065,0.0,298.08648681640625,-27.772829055786133,9.233684539794922,-27.772829055786133,9.233684539794922,0.8600019812583923,0.487066388130188,-1.9554345607757568,2.01518177986145,0.35559412091970444,-1.863546371459961,0.2629445493221283,-0.18377642333507538,0.32160019874572754,-28.894824981689453,8.319620132446289,25.0,25.0,-28.80603163282356,8.392475798809047,-28.844727408184525,8.360725599775506,-0.016637576643373685,-0.0136455232161758,0.021517649974087002,312.124372476984,312.5082702636719,312.5082702636719,311.4493103027344,311.4965298498193,3.1694343090057373,0.035559412091970444,-0.1863546371459961,0.04382409155368805,-0.03062940388917923,-0.7752872109413147,-0.631608784198761,0.32160019874572754,1.0,1.0,-0.9999752044677734,-0.9988330602645874,-0.9579248428344727,0.9998569488525391,0.9959787130355835,0.9992092847824097,0.9988451600074768
87,87,/yh/study/new_data_2/model_dataset_new_2_flight/vi/vi_000087.jpg,-342.8448791503906,29.765491485595703,-28.357661012603756,6.4052910166480075,0.0,301.31707763671875,-27.772829055786133,9.233684539794922,-27.772829055786133,9.233684539794922,0.8590303063392639,0.4563565254211426,-1.948906660079956,2.0016238689422607,0.32471969723701477,-1.8565402925014496,0.2632737010717392,-0.18473272025585175,0.32094770669937134,-28.89090919494629,8.319464683532715,25.0,25.0,-28.861364984827897,8.34708007655933,-28.87424022979343,8.335045402130318,-0.020075499535815094,-0.016858998597291668,0.0262154823590182,315.35362585198436,315.7403259277344,315.7403259277344,314.68560791015625,314.7011695617675,3.1693813800811768,0.03247196972370148,-0.18565402925014496,0.0438789501786232,-0.030788786709308624,-0.7741513252258301,-0.6330004334449768,0.32094770669937134,1.0,1.0,-0.9999756217002869,-0.9985103011131287,-0.9597162008285522,0.9998376369476318,0.994875967502594,0.999273419380188,0.998772144317627
88,88,/yh/study/new_data_2/model_dataset_new_2_flight/vi/vi_000088.jpg,-346.0498046875,30.067394256591797,-28.417883682020545,6.386138749500942,0.0,304.5334167480469,-27.772829055786133,9.233684539794922,-27.772829055786133,9.233684539794922,0.8600831031799316,0.4772123694419861,-1.96439790725708,2.021531820297241,0.3441162407398224,-1.8717138469219208,0.2661922574043274,-0.18536797910928726,0.32831835746765137,-28.917903900146484,8.300085067749023,25.0,25.0,-28.894315729329243,8.318186403533026,-28.90459535692273,8.31029791602605,-0.02282034572119104,-0.018965367203059642,0.02967243387357317,318.51348339438204,318.9581298828125,318.9581298828125,317.8780517578125,317.8906337760021,3.1702306270599365,0.03441162407398224,-0.18717138469219208,0.044365376234054565,-0.03089466318488121,-0.7750443816184998,-0.6319068074226379,0.32831835746765137,1.0,1.0,-0.9999760985374451,-0.9985295534133911,-0.9597380757331848,0.9998549222946167,0.9947952032089233,0.9992575645446777,0.9987366795539856
89,89,/yh/study/new_data_2/model_dataset_new_2_flight/vi/vi_000089.jpg,-349.5847473144531,30.437746047973633,-28.427382987480744,6.3459000795494855,0.0,308.0829772949219,-27.772829055786133,9.233684539794922,-27.772829055786133,9.233684539794922,0.8617734909057617,0.4813140630722046,-1.9647413492202759,2.0228376388549805,0.3478449583053589,-1.8721137940883636,0.266938179731369,-0.18525496870279312,0.33004269003868103,-28.923526763916016,8.294699668884277,25.0,25.0,-28.92741570264392,8.29133254882299,-28.925720919179508,8.292799925863829,-0.022367807933706213,-0.018573551036917015,0.02907396825134353,322.05973002474855,322.5097351074219,322.5097351074219,321.4248352050781,321.422789869536,3.1702163219451904,0.03478449583053589,-0.18721137940883636,0.044489696621894836,-0.030875828117132187,-0.7747799158096313,-0.6322311162948608,0.33004269003868103,1.0,1.0,-0.9999756217002869,-0.9985449314117432,-0.9591200351715088,0.9998572468757629,0.9947611689567566,0.9992346167564392,0.9987307786941528
90,90,/yh/study/new_data_2/model_dataset_new_2_flight/vi/vi_000090.jpg,-352.80938720703125,30.775583267211914,-28.444406871008464,6.3280586474240685,0.0,311.321044921875,-27.772829055786133,9.233684539794922,-27.772829055786133,9.233684539794922,0.8608843684196472,0.47126689553260803,-1.9596498012542725,2.015519618988037,0.3379226475954056,-1.8667928874492645,0.2666885331273079,-0.18571368232369423,0.3288500905036926,-28.919418334960938,8.298154830932617,25.0,25.0,-28.948088727113213,8.274226374826911,-28.93559428841476,8.284654297346194,-0.019031567190745204,-0.015789107428611678,0.02472845452364724,325.28498571010556,325.7496337890625,325.7496337890625,324.6689758300781,324.6537780858532,3.170351982116699,0.03379226475954056,-0.18667928874492645,0.044448088854551315,-0.03095228038728237,-0.7748138308525085,-0.6321895122528076,0.3288500905036926,1.0,1.0,-0.9999760985374451,-0.9984041452407837,-0.960719883441925,0.9998512268066406,0.9943139553070068,0.999267578125,0.9987090229988098
91,91,/yh/study/new_data_2/model_dataset_new_2_flight/vi/vi_000091.jpg,-356.03759765625,31.113798141479492,-28.4643273742557,6.325004568735082,0.0,314.5627746582031,-27.772829055786133,9.233684539794922,-27.772829055786133,9.233684539794922,0.861054539680481,0.4686301350593567,-1.9503540992736816,2.0058650970458984,0.33571287989616394,-1.8573655188083649,0.2658344954252243,-0.18597716465592384,0.32718539237976074,-28.914024353027344,8.30339241027832,25.0,25.0,-28.954625855605503,8.268865189917582,-28.936931888172705,8.283912010202911,-0.014306958388491957,-0.011771334713928133,0.018527098512108417,328.50986543790833,328.9931640625,328.9931640625,327.9178771972656,327.89640017341833,3.170560598373413,0.033571287989616394,-0.1857365518808365,0.044305749237537384,-0.03099619410932064,-0.7750921845436096,-0.6318482160568237,0.32718539237976074,1.0,1.0,-0.9999766945838928,-0.9983136057853699,-0.9625175595283508,0.9998475909233093,0.9940458536148071,0.9992933869361877,0.9987106919288635
92,92,/yh/study/new_data_2/model_dataset_new_2_flight/vi/vi_000092.jpg,-359.28173828125,31.43756103515625,-28.46830176056393,6.333557909066585,0.0,317.8197326660156,-27.772829055786133,9.233684539794922,-27.772829055786133,9.233684539794922,0.8612448573112488,0.4781341552734375,-1.9571733474731445,2.01473069190979,0.34487802535295486,-1.8642745912075043,0.26651228964328766,-0.1857978142797947,0.3295001685619354,-28.922266006469727,8.297017097473145,25.0,25.0,-28.951238846561196,8.272140675488982,-28.938612602297766,8.282981717629848,-0.010935523179685954,-0.008876580707012081,0.014084720524793806,331.7645863493883,332.2516784667969,332.2516784667969,331.1689147949219,331.15361273389675,3.1705667972564697,0.034487802535295486,-0.18642745912075043,0.04441871494054794,-0.030966302379965782,-0.7752053737640381,-0.6317093372344971,0.3295001685619354,1.0,1.0,-0.999976396560669,-0.9984205365180969,-0.961173951625824,0.9998546838760376,0.9943401217460632,0.9992656707763672,0.9987198114395142
93,93,/yh/study/new_data_2/model_dataset_new_2_flight/vi/vi_000093.jpg,-362.83331298828125,31.792009353637695,-28.460478432123168,6.325808219282447,0.0,321.3854064941406,-27.772829055786133,9.233684539794922,-27.772829055786133,9.233684539794922,0.8614727854728699,0.477544903755188,-1.9588696956634521,2.0162389278411865,0.34417007118463516,-1.8660332262516022,0.26674968749284744,-0.18567300215363503,0.32986101508140564,-28.923215866088867,8.295614242553711,25.0,25.0,-28.949548125477452,8.274105136922836,-28.938072635397827,8.28347871647962,-0.007871360116975819,-0.006373665707829485,0.010128273527422089,335.341199212586,335.8190002441406,335.8190002441406,334.7357482910156,334.7217987269846,3.1704564094543457,0.034417007118463516,-0.18660332262516022,0.04445828124880791,-0.03094550035893917,-0.774998128414154,-0.6319635510444641,0.32986101508140564,1.0,1.0,-0.9999760985374451,-0.9984412789344788,-0.9605779051780701,0.9998543858528137,0.9944022297859192,0.9992570877075195,0.9987189173698425
94,94,/yh/study/new_data_2/model_dataset_new_2_flight/vi/vi_000094.jpg,-366.0764465332031,32.11567306518555,-28.460527720466768,6.3246089891512,0.0,324.6414794921875,-27.772829055786133,9.233684539794922,-27.772829055786133,9.233684539794922,0.8613107800483704,0.4761766195297241,-1.9569363594055176,2.0140366554260254,0.3428351879119873,-1.8640676140785217,0.2666828781366348,-0.18573764339089394,0.3294127881526947,-28.921646118164062,8.296878814697266,25.0,25.0,-28.945943995514803,8.27710505077179,-28.935355080739974,8.285722375567778,-0.0050439286694231675,-0.004072684385373721,0.00648289862060914,338.5995977876263,339.0765686035156,339.0765686035156,337.9950866699219,337.98222156738916,3.1705129146575928,0.03428351879119873,-0.18640676140785217,0.044447146356105804,-0.030956273898482323,-0.7749926447868347,-0.631970226764679,0.3294127881526947,1.0,1.0,-0.9999762773513794,-0.9984144568443298,-0.9610708951950073,0.9998533129692078,0.994320273399353,0.9992645382881165,0.998715341091156
95,95,/yh/study/new_data_2/model_dataset_new_2_flight/vi/vi_000095.jpg,-369.61279296875,32.450355529785156,-28.45917845375967,6.328785939793809,0.0,328.19097900390625,-27.772829055786133,9.233684539794922,-27.772829055786133,9.233684539794922,0.8599821925163269,0.4537607431411743,-1.9298704862594604,1.9824981689453125,0.32226454466581345,-1.8368221819400787,0.26299242675304413,-0.18609674647450447,0.3203619122505188,-28.890344619750977,8.322942733764648,25.0,25.0,-28.940399009409397,8.281649691182404,-28.918585512759126,8.299645028897919,0.0007806688197052533,0.000732395724169786,0.0010704425733509381,342.1521958054447,342.6274719238281,342.6274719238281,341.57562255859375,341.54911771480744,3.170584201812744,0.032226454466581345,-0.18368221819400787,0.043832071125507355,-0.031016124412417412,-0.7751761078834534,-0.6317452788352966,0.3203619122505188,1.0,1.0,-0.9999774694442749,-0.9980924129486084,-0.9660279750823975,0.9998302459716797,0.9935546517372131,0.9993529915809631,0.9987196922302246
96,96,/yh/study/new_data_2/model_dataset_new_2_flight/vi/vi_000096.jpg,-372.840576171875,32.75583267211914,-28.46482475471679,6.369774473720588,0.0,331.4308166503906,-27.772829055786133,9.233684539794922,-27.772829055786133,9.233684539794922,0.864141583442688,0.5030565857887268,-1.960181474685669,2.0237038135528564,0.37008125334978104,-1.8677330017089844,0.26595067977905273,-0.18489700555801392,0.33088448643684387,-28.927871704101562,8.294034957885742,25.0,25.0,-28.91780484393942,8.300377424622088,-28.922191940094706,8.297613403766936,-0.00039076507098744764,-5.647753724958107e-06,0.0003908058825375621,345.38512161264504,345.8685302734375,345.8685302734375,344.7815856933594,344.78697699068806,3.170872211456299,0.037008125334978104,-0.18677330017089844,0.04432511329650879,-0.03081616759300232,-0.7757267355918884,-0.631069004535675,0.33088448643684387,1.0,1.0,-0.9999762177467346,-0.9986435770988464,-0.9605626463890076,0.9998681545257568,0.9950534701347351,0.99922114610672,0.9987714886665344
97,97,/yh/study/new_data_2/model_dataset_new_2_flight/vi/vi_000097.jpg,-376.074462890625,33.0618896484375,-28.4191353468554,6.337431899278945,0.0,334.6768493652344,-27.772829055786133,9.233684539794922,-27.772829055786133,9.233684539794922,0.8627278804779053,0.48289206624031067,-1.9611048698425293,2.0196824073791504,0.34949298948049545,-1.8686191737651825,0.26679814606904984,-0.1849713698029518,0.32965272665023804,-28.92176055908203,8.29531192779541,25.0,25.0,-28.922582705165695,8.297607756013212,-28.922224417291957,8.296607243541072,-0.00029509573914096826,-0.0002728026499115796,0.00040187408607415115,348.68097655529226,349.1157531738281,349.1157531738281,348.0350341796875,348.03447514526516,3.170048475265503,0.034949298948049545,-0.18686191737651825,0.04446635767817497,-0.030828561633825302,-0.7745059132575989,-0.632566511631012,0.32965272665023804,1.0,1.0,-0.9999752044677734,-0.9985817074775696,-0.9586349725723267,0.9998570680618286,0.9948593378067017,0.9992163777351379,0.99873948097229
98,98,/yh/study/new_data_2/model_dataset_new_2_flight/vi/vi_000098.jpg,-379.28497314453125,33.342430114746094,-28.439332354776937,6.335502384874413,0.0,337.8981018066406,-27.772829055786133,9.233684539794922,-27.772829055786133,9.233684539794922,0.8652666807174683,0.5163453221321106,-1.9766243696212769,2.0429527759552,0.38337625563144684,-1.8848150968551636,0.2659381404519081,-0.1836184412240982,0.33439943194389343,-28.940797805786133,8.28486156463623,25.0,25.0,-28.922519513031098,8.29633444089116,-28.930485117656495,8.291334608719323,-0.0024220560080216117,-0.0016078481211193449,0.0029071516793212895,351.88355716995335,352.33795166015625,352.33795166015625,351.2391357421875,351.2489497018114,3.1714417934417725,0.038337625563144684,-0.18848150968551636,0.04432302340865135,-0.0306030735373497,-0.7761632800102234,-0.6305319666862488,0.33439943194389343,1.0,1.0,-0.9999755024909973,-0.9987805485725403,-0.9602826237678528,0.9998807311058044,0.9954610466957092,0.9991753101348877,0.9988057613372803
99,99,/yh/study/new_data_2/model_dataset_new_2_flight/vi/vi_000099.jpg,-382.8072509765625,33.650211334228516,-28.414139791799094,6.31471029125211,0.0,341.4322204589844,-27.772829055786133,9.233684539794922,-27.772829055786133,9.233684539794922,0.864166796207428,0.5048892498016357,-1.973921298980713,2.037468671798706,0.37150193005800247,-1.8820728361606598,0.2667747214436531,-0.1836969405412674,0.33392593264579773,-28.937292098999023,8.283929824829102,25.0,25.0,-28.932907173664518,8.289726760598203,-28.934818106047246,8.287200479889476,-0.0029323094596703184,-0.0022824106870753744,0.003715889841175047,355.44578612284414,355.8730163574219,355.8730163574219,354.7779541015625,354.78018696834613,3.1704673767089844,0.03715019300580025,-0.18820728361606598,0.044462453573942184,-0.0306161567568779,-0.7749309539794922,-0.6320459246635437,0.33392593264579773,1.0,1.0,-0.9999741315841675,-0.9987694025039673,-0.9574828743934631,0.9998732805252075,0.9953779578208923,0.9991428256034851,0.9987837076187134
100,100,/yh/study/new_data_2/model_dataset_new_2_flight/vi/vi_000100.jpg,-386.01123046875,33.930179595947266,-28.429928815267417,6.313279173458183,0.0,344.6470031738281,-27.772829055786133,9.233684539794922,-27.772829055786133,9.233684539794922,0.8642871379852295,0.4924108684062958,-1.9735294580459595,2.0340323448181152,0.3582852706313133,-1.8811261653900146,0.2682512551546097,-0.18480660393834114,0.3339446187019348,-28.936717987060547,8.283093452453613,25.0,25.0,-28.937750415506915,8.284918069202401,-28.937300487446457,8.28412290874576,-0.00281217054323442,-0.0024947328871089314,0.003759254625887722,358.6461772850013,359.0886535644531,359.0886535644531,357.9944152832031,357.9937313639668,3.1703996658325195,0.03582852706313133,-0.18811261653900146,0.04470854252576828,-0.03080110065639019,-0.7745054364204407,-0.6325671672821045,0.3339446187019348,1.0,1.0,-0.9999749660491943,-0.9986118674278259,-0.9580299854278564,0.9998652935028076,0.9948558807373047,0.9991932511329651,0.9987218976020813
101,101,/yh/study/new_data_2/model_dataset_new_2_flight/vi/vi_000101.jpg,-389.1904296875,34.22496032714844,-28.44488958923784,6.310593441386574,0.0,347.8379211425781,-27.772829055786133,9.233684539794922,-27.772829055786133,9.233684539794922,0.8637704253196716,0.4893242418766022,-1.9716134071350098,2.0314273834228516,0.3551703318953514,-1.8790112435817719,0.26830780506134033,-0.18520446494221687,0.333744615316391,-28.93627166748047,8.283970832824707,25.0,25.0,-28.94011265798969,8.28162817585865,-28.9384387701613,8.282649096106216,-0.002365212267877353,-0.002222128746383176,0.0032453174324894624,361.8239303575978,362.2806091308594,362.2806091308594,361.1869201660156,361.1848563712417,3.1705214977264404,0.03551703318953514,-0.18790112435817719,0.04471796751022339,-0.030867410823702812,-0.7746728658676147,-0.6323621869087219,0.333744615316391,1.0,1.0,-0.9999754428863525,-0.9985551238059998,-0.9587805867195129,0.9998632669448853,0.9946820735931396,0.999215841293335,0.9987117648124695
102,102,/yh/study/new_data_2/model_dataset_new_2_flight/vi/vi_000102.jpg,-392.3679504394531,34.51958084106445,-28.44911453573528,6.311035620053335,0.0,351.02716064453125,-27.772829055786133,9.233684539794922,-27.772829055786133,9.233684539794922,0.8632848262786865,0.4844961166381836,-1.9669876098632812,2.02577805519104,0.350438728928566,-1.874241679906845,0.2681148201227188,-0.1854918971657753,0.33239224553108215,-28.931638717651367,8.287919044494629,25.0,25.0,-28.94080398242918,8.280426967359832,-28.936809797825312,8.283691983687046,-0.0012986928561664155,-0.0013503104310367713,0.0018734837588899437,365.0104671773166,365.4709167480469,365.4709167480469,364.3817443847656,364.37688709934844,3.1705102920532227,0.0350438728928566,-0.1874241679906845,0.04468580335378647,-0.030915316194295883,-0.7747276425361633,-0.6322952508926392,0.33239224553108215,1.0,1.0,-0.9999756813049316,-0.9984989762306213,-0.9595448970794678,0.9998598694801331,0.9945192933082581,0.9992315769195557,0.998705267906189
103,103,/yh/study/new_data_2/model_dataset_new_2_flight/vi/vi_000103.jpg,-395.8560485839844,34.84300231933594,-28.452313658835386,6.316704355197313,0.0,354.5281982421875,-27.772829055786133,9.233684539794922,-27.772829055786133,9.233684539794922,0.8647144436836243,0.5074408054351807,-1.9759907722473145,2.040106773376465,0.3736535459756851,-1.8837480247020721,0.2675745561718941,-0.18448548763990402,0.33517879247665405,-28.94249153137207,8.281386375427246,25.0,25.0,-28.93810849068148,8.28234167325601,-28.940018601744157,8.281925358400711,-0.001808727000531817,-0.0014614740147455734,0.002325381615612665,368.50950342221563,368.9730529785156,368.9730529785156,367.87371826171875,367.87615289286276,3.1710283756256104,0.03736535459756851,-0.18837480247020721,0.044595759361982346,-0.030747581273317337,-0.7754815220832825,-0.6313701868057251,0.33517879247665405,1.0,1.0,-0.9999755620956421,-0.9986865520477295,-0.9591853618621826,0.9998741149902344,0.9951154589653015,0.9991897344589233,0.998757004737854
104,104,/yh/study/new_data_2/model_dataset_new_2_flight/vi/vi_000104.jpg,-399.0557861328125,35.11958312988281,-28.432577777682525,6.305934589878687,0.0,357.7386779785156,-27.772829055786133,9.233684539794922,-27.772829055786133,9.233684539794922,0.8647357821464539,0.5025642514228821,-1.9765578508377075,2.0394489765167236,0.3687039017677307,-1.8844155967235565,0.26772071421146393,-0.18428443372249603,0.33492839336395264,-28.940868377685547,8.28117847442627,25.0,25.0,-28.94182732874469,8.280463884385966,-28.941409421826652,8.280775299779439,-0.0016971383073243057,-0.0013783204815008463,0.0021863315814195095,371.74156199386283,372.1842346191406,372.1842346191406,371.08673095703125,371.0862075770302,3.1706151962280273,0.03687039017677307,-0.18844155967235565,0.04462011903524399,-0.030714072287082672,-0.7749848365783691,-0.6319798231124878,0.33492839336395264,1.0,1.0,-0.9999747276306152,-0.9987066984176636,-0.9578649401664734,0.9998719692230225,0.9951649308204651,0.9991680383682251,0.9987567663192749
105,105,/yh/study/new_data_2/model_dataset_new_2_flight/vi/vi_000105.jpg,-402.5732727050781,35.42363357543945,-28.43884516295319,6.304217486194634,0.0,361.2679443359375,-27.772829055786133,9.233684539794922,-27.772829055786133,9.233684539794922,0.8661749958992004,0.5154745578765869,-1.9799563884735107,2.045957326889038,0.38229823112487793,-1.8882335722446442,0.26635265350341797,-0.18344559520483017,0.3358599841594696,-28.94550323486328,8.280230522155762,25.0,25.0,-28.943106560133977,8.279396979297937,-28.944151021100062,8.27976023383887,-0.00197602824496669,-0.0012813249598313682,0.0023550968722311602,375.265919403364,375.71435546875,375.71435546875,374.6124572753906,374.61381505535235,3.171389102935791,0.03822982311248779,-0.18882335722446442,0.04439210891723633,-0.030574265867471695,-0.7759013175964355,-0.6308543682098389,0.3358599841594696,1.0,1.0,-0.9999749064445496,-0.9987874627113342,-0.9595912098884583,0.9998818039894104,0.9954221844673157,0.9991530776023865,0.9988033771514893
106,106,/yh/study/new_data_2/model_dataset_new_2_flight/vi/vi_000106.jpg,-405.7723693847656,35.70016098022461,-28.428676463223475,6.29980386399181,0.0,364.477783203125,-27.772829055786133,9.233684539794922,-27.772829055786133,9.233684539794922,0.8660208582878113,0.5093982815742493,-1.97527015209198,2.0398967266082764,0.37592925131320953,-1.8834535777568817,0.26693809032440186,-0.18363317102193832,0.33509406447410583,-28.941650390625,8.280957221984863,25.0,25.0,-28.94612704934503,8.278478908879038,-28.944176139931088,8.279558947513035,-0.0014551002041233202,-0.0009929351424352428,0.001761600636104172,378.48730967659816,378.9249572753906,378.9249572753906,377.8269348144531,377.82453154871075,3.1707663536071777,0.03759292513132095,-0.18834535777568817,0.04448968172073364,-0.030605528503656387,-0.7751199007034302,-0.631814181804657,0.33509406447410583,1.0,1.0,-0.9999743103981018,-0.9987676739692688,-0.958064079284668,0.9998763799667358,0.995334267616272,0.9991408586502075,0.9987838268280029
107,107,/yh/study/new_data_2/model_dataset_new_2_flight/vi/vi_000107.jpg,-410.9620056152344,36.18172073364258,-28.434777843455677,6.304288784245184,0.0,369.6869201660156,-27.772829055786133,9.233684539794922,-27.772829055786133,9.233684539794922,0.8657776117324829,0.5052381753921509,-1.9763554334640503,2.0399134159088135,0.3713805601000786,-1.8842877447605133,0.2677151709794998,-0.1841355264186859,0.3354355990886688,-28.942562103271484,8.279643058776855,25.0,25.0,-28.94563124013521,8.2785660123706,-28.944293722943353,8.279035384754028,-0.0010979589625211314,-0.0008676042406629956,0.0013993752183731468,383.69224767598985,384.1355895996094,384.1355895996094,383.03704833984375,383.0353665774227,3.1707401275634766,0.03713805601000786,-0.18842877447605133,0.04461919516324997,-0.03068925440311432,-0.7749345898628235,-0.632041335105896,0.3354355990886688,1.0,1.0,-0.99997478723526,-0.9987095594406128,-0.9581106305122375,0.9998733401298523,0.9951477646827698,0.9991653561592102,0.998756468296051
108,108,/yh/study/new_data_2/model_dataset_new_2_flight/vi/vi_000108.jpg,-415.7295227050781,36.62411117553711,-28.439055577353525,6.302679876784172,0.0,374.4723815917969,-27.772829055786133,9.233684539794922,-27.772829055786133,9.233684539794922,0.866857647895813,0.516011655330658,-1.9808377027511597,2.046945571899414,0.3830096125602722,-1.889200359582901,0.2660041004419327,-0.18327471613883972,0.3360859453678131,-28.946422576904297,8.27975082397461,25.0,25.0,-28.945391681905875,8.278167780513366,-28.94584094169604,8.278857664327248,-0.0012179194387219325,-0.0006833928052132074,0.0013965505667300144,388.47560428425373,388.9223937988281,388.9223937988281,387.8202819824219,387.82092500927797,3.1714344024658203,0.03830096125602722,-0.1889200359582901,0.04433401674032211,-0.030545786023139954,-0.7759882807731628,-0.6307472586631775,0.3360859453678131,1.0,1.0,-0.99997478723526,-0.9988031387329102,-0.9595777988433838,0.9998828172683716,0.9954650402069092,0.9991476535797119,0.9988131523132324
109,109,/yh/study/new_data_2/model_dataset_new_2_flight/vi/vi_000109.jpg,-418.8456726074219,36.940486907958984,-28.429829278914802,6.298019946674927,0.0,377.6019592285156,-27.772829055786133,9.233684539794922,-27.772829055786133,9.233684539794922,0.8667080998420715,0.5157777070999146,-1.9793542623519897,2.0454509258270264,0.38299474865198135,-1.8878936767578125,0.2655659392476082,-0.1829211786389351,0.33564162254333496,-28.94472885131836,8.28083610534668,25.0,25.0,-28.947058861134764,8.278174271522035,-28.946043452462874,8.279334287728679,-0.0009467869882238573,-0.00037364753177554895,0.0010178497330509853,391.6165107645268,392.0531005859375,392.0531005859375,390.9528503417969,390.95163701498257,3.171262741088867,0.038299474865198135,-0.18878936767578125,0.044260989874601364,-0.03048686310648918,-0.7758937478065491,-0.630863606929779,0.33564162254333496,1.0,1.0,-0.9999740123748779,-0.9988374710083008,-0.9590696096420288,0.9998834133148193,0.9955652356147766,0.9991187453269958,0.9988294839859009
110,110,/yh/study/new_data_2/model_dataset_new_2_flight/vi/vi_000110.jpg,-422.2717590332031,37.288333892822266,-28.43026573418709,6.299980021651399,0.0,381.0428466796875,-27.772829055786133,9.233684539794922,-27.772829055786133,9.233684539794922,0.8668911457061768,0.5201564431190491,-1.9800670146942139,2.0472488403320312,0.38799118250608444,-1.888870745897293,0.26433051377534866,-0.18239271640777588,0.33560457825660706,-28.945369720458984,8.281888961791992,25.0,25.0,-28.946990239451097,8.278960640196903,-28.946284023955364,8.28023679067524,-0.0007582146988211703,-3.289231077472976e-05,0.000758927818449541,395.05872970944944,395.4952087402344,395.4952087402344,394.3945007324219,394.39371063537254,3.1716949939727783,0.038799118250608444,-0.1888870745897293,0.04405508562922478,-0.030398786067962646,-0.7764036655426025,-0.6302359104156494,0.33560457825660706,1.0,1.0,-0.9999738931655884,-0.9988768100738525,-0.9602739810943604,0.9998876452445984,0.9957033395767212,0.9991068840026855,0.998862087726593
111,111,/yh/study/new_data_2/model_dataset_new_2_flight/vi/vi_000111.jpg,-425.7071228027344,37.63711929321289,-28.426127584561605,6.300169686574058,0.0,384.4930725097656,-27.772829055786133,9.233684539794922,-27.772829055786133,9.233684539794922,0.8669244050979614,0.5188135504722595,-1.9724844694137573,2.039574146270752,0.3862038254737854,-1.8811428546905518,0.26521946489810944,-0.18268319964408875,0.33494633436203003,-28.941883087158203,8.282295227050781,25.0,25.0,-28.947042238654184,8.280203898364464,-28.944793901702244,8.281115290783887,-0.00015786813472179332,0.0002104659221073892,0.00026309361894400233,398.5149853797105,398.9466857910156,398.9466857910156,397.8496398925781,397.8468557195864,3.1711843013763428,0.03862038254737854,-0.18811428546905518,0.044203244149684906,-0.030447199940681458,-0.7756160497665405,-0.631205141544342,0.33494633436203003,1.0,1.0,-0.9999738335609436,-0.9988459944725037,-0.9591607451438904,0.999882698059082,0.9955795407295227,0.999108076095581,0.9988340139389038
112,112,/yh/study/new_data_2/model_dataset_new_2_flight/vi/vi_000112.jpg,-429.1660461425781,37.977447509765625,-28.425980343779404,6.308630836271291,0.0,387.9664001464844,-27.772829055786133,9.233684539794922,-27.772829055786133,9.233684539794922,0.8675792217254639,0.5173985958099365,-1.9705288410186768,2.037322998046875,0.3845950588583946,-1.8790426850318909,0.265607088804245,-0.1829725205898285,0.33457091450691223,-28.940284729003906,8.283007621765137,25.0,25.0,-28.944951769836965,8.281325756705995,-28.942917892683067,8.282058706564822,0.00038521379082762824,0.00040617676919558576,0.0005597939196507549,401.9894454907055,402.42108154296875,402.42108154296875,401.3258361816406,401.32327181750276,3.171114444732666,0.03845950588583946,-0.1879042685031891,0.04426784813404083,-0.03049542009830475,-0.7754246592521667,-0.6314399838447571,0.33457091450691223,1.0,1.0,-0.9999743700027466,-0.9988200068473816,-0.959193229675293,0.9998801350593567,0.995513379573822,0.999131977558136,0.9988187551498413
113,113,/yh/study/new_data_2/model_dataset_new_2_flight/vi/vi_000113.jpg,-432.6162414550781,38.31691360473633,-28.42551928942255,6.311529761238017,0.0,391.43096923828125,-27.772829055786133,9.233684539794922,-27.772829055786133,9.233684539794922,0.8692623972892761,0.5206849575042725,-1.9718810319900513,2.0394675731658936,0.3883429244160652,-1.880577951669693,0.2646840512752533,-0.18260625377297401,0.3341660499572754,-28.939720153808594,8.285201072692871,25.0,25.0,-28.94253267889224,8.282464883334017,-28.941306992056187,8.283657303375918,0.0007124943081229019,0.0007245744517589262,0.0010161969667585517,405.455897083473,405.8866882324219,405.8866882324219,404.7920837402344,404.79062390053986,3.171422243118286,0.03883429244160652,-0.1880577951669693,0.04411400854587555,-0.030434375628829002,-0.7759888768196106,-0.630746603012085,0.3341660499572754,1.0,1.0,-0.9999743103981018,-0.9988572001457214,-0.9601061344146729,0.9998840689659119,0.9956539869308472,0.9991251230239868,0.9988450407981873
114,114,/yh/study/new_data_2/model_dataset_new_2_flight/vi/vi_000114.jpg,-435.776611328125,38.627864837646484,-28.420622042002496,6.311776224819738,0.0,394.6045227050781,-27.772829055786133,9.233684539794922,-27.772829055786133,9.233684539794922,0.8690817356109619,0.5204731225967407,-1.972736120223999,2.0402402877807617,0.3882679343223572,-1.8815170228481293,0.2644103765487671,-0.18243825808167458,0.33403342962265015,-28.939327239990234,8.285662651062012,25.0,25.0,-28.940594497748066,8.284381877827677,-28.94004223204182,8.284940033522863,0.0008599592238818285,0.000873612100919313,0.0012258580544304847,408.63581780175315,409.0612487792969,409.0612487792969,407.9671936035156,407.96652686162963,3.171391725540161,0.03882679343223572,-0.18815170228481293,0.04406839609146118,-0.030406376346945763,-0.7760351300239563,-0.630689799785614,0.33403342962265015,1.0,1.0,-0.9999738335609436,-0.998876690864563,-0.9599561095237732,0.999884843826294,0.9957178235054016,0.9991075396537781,0.9988560676574707
115,115,/yh/study/new_data_2/model_dataset_new_2_flight/vi/vi_000115.jpg,-439.2908630371094,38.962501525878906,-28.419569109445078,6.312203881633897,0.0,398.1328125,-27.772829055786133,9.233684539794922,-27.772829055786133,9.233684539794922,0.8675158023834229,0.5202226638793945,-1.9737800359725952,2.0411858558654785,0.3879740461707115,-1.882556974887848,0.2644972801208496,-0.18244631588459015,0.3343740701675415,-28.94044303894043,8.28460693359375,25.0,25.0,-28.939182272817938,8.285813645623783,-28.939731709496268,8.285287765496093,0.000713249709660246,0.0007331926110764531,0.0010228863833620684,412.1665465683149,412.5904541015625,412.5904541015625,411.49560546875,411.4962240725329,3.1713969707489014,0.03879740461707115,-0.1882556974887848,0.0440828800201416,-0.030407719314098358,-0.7759867906570435,-0.6307491660118103,0.3343740701675415,1.0,1.0,-0.9999738335609436,-0.9988739490509033,-0.9598560333251953,0.9998849034309387,0.9957032203674316,0.9991062879562378,0.998854398727417
116,116,/yh/study/new_data_2/model_dataset_new_2_flight/vi/vi_000116.jpg,-442.5021057128906,39.26829147338867,-28.41950902326513,6.3115076326659505,0.0,401.3569030761719,-27.772829055786133,9.233684539794922,-27.772829055786133,9.233684539794922,0.8674359321594238,0.5200376510620117,-1.9775104522705078,2.044746160507202,0.3878704458475113,-1.8863171339035034,0.26433447003364563,-0.18238656967878342,0.33481940627098083,-28.94232177734375,8.28374195098877,25.0,25.0,-28.93901845978661,8.28602095810717,-28.940458031959185,8.285027776200799,0.0003288579454131088,0.00046799510831748933,0.0005719851131545556,415.3920395028619,415.8153991699219,415.8153991699219,414.7188720703125,414.7206277265412,3.171539306640625,0.03878704458475113,-0.18863171339035034,0.044055745005607605,-0.03039776161313057,-0.7762018442153931,-0.6304844617843628,0.33481940627098083,1.0,1.0,-0.999973714351654,-0.9988815188407898,-0.9600610733032227,0.9998864531517029,0.9957278966903687,0.9991025924682617,0.9988614916801453
117,117,/yh/study/new_data_2/model_dataset_new_2_flight/vi/vi_000117.jpg,-445.7133483886719,39.57407760620117,-28.42042035109485,6.307517357457904,0.0,404.5810241699219,-27.772829055786133,9.233684539794922,-27.772829055786133,9.233684539794922,0.8674742579460144,0.5172395706176758,-1.9716675281524658,2.038384199142456,0.3845119848847389,-1.8802531063556671,0.2654552310705185,-0.18282896652817726,0.3345337212085724,-28.94015121459961,8.283108711242676,25.0,25.0,-28.940129174013773,8.285495771309117,-28.940138779210212,8.284455500373468,0.00032629318452404607,0.00019022398446054872,0.00037769353519869815,418.61683174587915,419.0403747558594,419.0403747558594,417.9461975097656,417.9461074106299,3.1710453033447266,0.03845119848847389,-0.1880253106355667,0.04424253851175308,-0.030471494421362877,-0.7754221558570862,-0.6314433217048645,0.3345337212085724,1.0,1.0,-0.9999738931655884,-0.9988369941711426,-0.9589017033576965,0.9998810291290283,0.9955595135688782,0.9991135001182556,0.9988258481025696
